time,aX,aY,aZ,gX,gY,gZ,aX_T,aY_T,aZ_T,gX_T,gY_T,gZ_T
33075,0.134816,-1.000351,-0.013291,-0.042676,-0.007849,-0.022195,0.010866987,0.004024775,0.009415592,-0.043352915,-0.022077826,0.002925767
33084.875,0.13335,-1.000596,-0.013779,-0.04012,-0.004182,-0.02462,-0.001876052,2.78E-05,0.009535001,-0.040362528,-0.024562515,-0.000892798
33094.75,0.132616,-1.00084,-0.014268,-0.036925,-0.004793,-0.029471,0.002568852,0.007744798,0.009655735,-0.037284118,-0.02940163,0.000637999
33104.625,0.131883,-1.000351,-0.018422,-0.048428,-0.007849,-0.031897,0.000347593,-0.004673288,0.009164337,-0.049091056,-0.031792156,0.001903576
33114.5,0.13115,-1.001329,-0.014757,-0.038203,-0.007849,-0.030078,0.000601317,0.008022953,0.009956993,-0.038946171,-0.029942554,0.003521552
33124.375,0.130905,-0.999862,-0.0172,-0.042676,-0.006626,-0.028258,-0.001591423,-0.00261223,0.008536872,-0.043223822,-0.028168817,0.00137055
33134.25,0.132616,-1.000596,-0.012802,-0.041398,-0.004793,-0.028258,0.003095742,-0.006155863,0.009403671,-0.041717197,-0.028192516,-0.000373315
33144.125,0.131639,-1.000351,-0.012313,-0.041398,-0.004793,-0.029471,0.002159065,-0.00566776,0.009032098,-0.041719191,-0.029405488,-0.000365322
33206,0.129927,-1.000351,-0.014757,-0.038203,-0.006015,-0.025227,0.003629688,0.008709334,0.008817075,-0.038701946,-0.025121293,0.001769449
33216,0.12895,-0.999862,-0.016711,-0.04012,-0.003571,-0.022195,-0.00267238,-0.000859733,0.008277491,-0.040286079,-0.022140466,-0.001347606
33226,0.133594,-1.003285,-0.012802,-0.037564,-0.004182,-0.025227,-0.001200866,-0.005122529,0.012207665,-0.037835857,-0.025158485,-0.000665814
33236,0.132861,-1.000596,-0.011825,-0.042676,-0.006626,-0.028865,0.002193646,0.00448891,0.009435124,-0.043230195,-0.028761089,0.001510983
33246,0.13115,-1.000351,-0.014268,-0.037564,-0.004182,-0.028865,-0.001991232,-0.006124908,0.008991844,-0.037843575,-0.028796901,-0.000577744
33256,0.131883,-1.000351,-0.011581,-0.04715,-0.006626,-0.021588,0.001402796,0.005463719,0.009057753,-0.04765162,-0.021486998,0.000836719
33266,0.131394,-1.000596,-0.013291,-0.039481,-0.007849,-0.027652,0.006145946,-0.003692582,0.009248226,-0.040200605,-0.027549576,0.003149845
33276,0.129194,-1.000351,-0.015245,-0.042676,-0.003571,-0.030078,0.003989794,-0.005647457,0.008750619,-0.042844295,-0.030014817,-0.001468409
33386,0.128705,-1.000351,-0.015245,-0.042676,-0.007237,-0.027046,-0.012576312,-0.000478031,0.008633292,-0.04332511,-0.026935385,0.001587788
33396,0.12895,-1.001085,-0.015245,-0.043315,-0.009682,-0.023408,-0.000331909,0.000241461,0.009470912,-0.044242211,-0.023259768,0.004413027
33406,0.132127,-1.000351,-0.015001,-0.038203,-0.007237,-0.030078,-0.003443336,-0.006798651,0.009121707,-0.038887039,-0.029985142,0.002284494
33416,0.130416,-1.00084,-0.014024,-0.039481,-0.006626,-0.027046,-0.000670749,0.002719961,0.0093948,-0.040058709,-0.026941882,0.001890555
33426,0.13115,-1.001329,-0.015978,-0.043954,-0.00296,-0.020376,-0.00187354,-0.007595763,0.009977316,-0.044000889,-0.020312793,-0.002685005
33436,0.131394,-1.000351,-0.014757,-0.036925,-0.001738,-0.026439,-0.003067722,0.002772884,0.009042703,-0.036879122,-0.026418371,-0.002738073
33446,0.133594,-1.00084,-0.012558,-0.044594,-0.007849,-0.027652,0.005994695,-0.001764676,0.009775577,-0.045279244,-0.027544151,0.002444291
33456,0.129927,-1.000351,-0.013046,-0.041398,-0.007237,-0.028258,0.002418023,-0.002256217,0.008832201,-0.042032642,-0.028158264,0.002247728
36355,-0.009162,-0.962948,-0.284249,0.647537,2.15882,0.503525,0.010388162,-0.004221796,0.004004258,0.601356695,-0.132652052,-2.225785017
36365,-0.019918,-0.945102,-0.280584,0.599606,2.149655,0.458653,-0.003534305,-0.001674656,-0.013933774,0.55508008,-0.192425412,-2.201309863
36375,-0.018207,-0.922856,-0.275209,0.556148,2.130713,0.413782,-0.005720309,0.00128998,-0.036828001,0.513219529,-0.248291304,-2.166889746
36385,-0.01454,-0.904276,-0.274965,0.511412,2.115438,0.373156,-0.005508436,0.000497478,-0.054747834,0.467043198,-0.29969056,-2.137269703
36395,-0.011607,-0.895231,-0.279851,0.468593,2.097718,0.319796,-9.74E-05,-0.003971038,-0.061983972,0.406143362,-0.357070573,-2.10471325
36405,-0.018451,-0.896942,-0.283761,0.416188,2.078166,0.265223,-0.000795089,-0.012667108,-0.059146872,0.326949311,-0.390722677,-2.074311826
36415,-0.02334,-0.899876,-0.274721,0.374647,2.062279,0.203373,0.002380126,-0.006406349,-0.058858941,0.255740546,-0.436842809,-2.044133254
36425,-0.03654,-0.899387,-0.271056,0.334385,2.040894,0.145162,-0.010221261,-0.001132677,-0.060001199,0.209697138,-0.480237921,-2.005874448
36486,-0.075162,-0.865651,-0.297687,0.048713,1.894249,-0.194403,0.001964456,0.00577638,-0.081533177,-0.110042952,-0.808997353,-1.720976057
36496,-0.093251,-0.867362,-0.30746,0.014842,1.872253,-0.225934,-0.015192301,0.004850876,-0.075181151,-0.156341782,-0.841526962,-1.680472366
36506,-0.09594,-0.881541,-0.321631,-0.01903,1.842313,-0.265954,-0.015086524,0.003340172,-0.056852738,-0.20406241,-0.876522715,-1.62950217
36516,-0.105229,-0.898165,-0.336047,-0.066323,1.809929,-0.290209,-0.019881713,-9.70E-06,-0.03547638,-0.267197115,-0.887985838,-1.582576963
36526,-0.114518,-0.908677,-0.339223,-0.089969,1.775101,-0.315676,-0.025461441,0.001820973,-0.023665577,-0.305420217,-0.894162139,-1.538155349
36536,-0.131385,-0.908432,-0.329694,-0.116171,1.743328,-0.325984,-0.040920837,0.010536563,-0.025616443,-0.34246225,-0.882636121,-1.504203068
36546,-0.146785,-0.912588,-0.310881,-0.132148,1.715221,-0.334473,-0.052544716,0.03070412,-0.02670354,-0.370573301,-0.872620115,-1.47394977
36556,-0.175141,-0.913077,-0.30575,-0.151321,1.689558,-0.332048,-0.080174277,0.038792128,-0.025354271,-0.386140467,-0.85964897,-1.449020132
36618,-0.233074,-0.873229,-0.289136,-0.231846,1.483645,-0.230785,0.002678861,0.000182901,-0.051082305,-0.564674864,-0.678887897,-1.236313185
36628,-0.256052,-0.893764,-0.284982,-0.246545,1.452484,-0.199254,-0.012935704,0.010251378,-0.027724817,-0.583437809,-0.631267038,-1.212970987
36638,-0.265341,-0.907943,-0.283272,-0.254853,1.413989,-0.167723,-0.015493111,0.016245935,-0.012829601,-0.594090344,-0.581838238,-1.183624466
36648,-0.269008,-0.907943,-0.283272,-0.258049,1.381606,-0.129522,-0.017226752,0.015193031,-0.01184959,-0.598838032,-0.526991772,-1.164419623
36658,-0.262408,-0.903298,-0.283028,-0.25677,1.358387,-0.105873,-0.007684691,0.013848725,-0.017829321,-0.603063109,-0.490699207,-1.147991438
36668,-0.260697,-0.898898,-0.288159,-0.25677,1.341278,-0.082225,-0.001274589,0.00865026,-0.020745336,-0.610944369,-0.457491425,-1.135414916
36678,-0.264852,-0.891075,-0.287426,-0.249101,1.313782,-0.06646,-0.004263644,0.006219545,-0.027005611,-0.604657846,-0.426846782,-1.115653215
36688,-0.268519,-0.889608,-0.283272,-0.244628,1.296674,-0.047662,-0.00822226,0.010037721,-0.02861979,-0.595725334,-0.404286481,-1.106861217
36751,-0.317163,-0.94168,-0.283516,-0.160907,1.174471,0.108174,-0.013013808,1.20E-05,0.033230639,-0.497033127,-0.229743921,-1.056953456
36760.875,-0.306897,-0.947302,-0.279851,-0.139817,1.158584,0.126971,-0.005258835,0.000543143,0.034338184,-0.472393204,-0.197859573,-1.056259231
36770.75,-0.299563,-0.943635,-0.264215,-0.10978,1.144531,0.134248,-0.003284794,0.009672375,0.024641511,-0.438818747,-0.178061439,-1.056294284
36780.625,-0.290274,-0.931412,-0.246623,-0.084217,1.128644,0.137279,0.000247105,0.018083285,0.006122829,-0.410513743,-0.162138264,-1.051173133
36790.5,-0.283186,-0.90012,-0.224145,-0.056736,1.109703,0.137279,-0.005506022,0.026249004,-0.030499108,-0.3772568,-0.148822982,-1.043568049
36800.375,-0.269008,-0.883252,-0.215593,-0.029255,1.094427,0.130003,-0.003844791,0.025308714,-0.052200217,-0.340101469,-0.144995866,-1.038669477
36810.25,-0.258008,-0.874451,-0.228054,-0.010083,1.078541,0.123333,-0.00207622,0.020458624,-0.060415815,-0.311269236,-0.156286436,-1.028226335
36820.125,-0.258497,-0.87983,-0.248822,0.005255,1.061432,0.10878,-0.000854395,0.001834592,-0.049826426,-0.291637838,-0.16694172,-1.012707474
36882,-0.319608,-0.934835,-0.202888,0.131794,0.950227,0.092408,0.011288708,0.001604894,0.008513401,-0.187013811,-0.111106629,-0.938893711
36891.875,-0.315697,-0.915522,-0.198735,0.154802,0.930064,0.103929,0.002477538,0.010327336,-0.011451601,-0.154653866,-0.102674208,-0.930227998
36901.75,-0.313741,-0.902321,-0.207286,0.182921,0.91601,0.108174,-8.06E-05,0.008577881,-0.022497825,-0.124033482,-0.103966995,-0.926305881
36911.625,-0.314475,-0.901098,-0.214616,0.195703,0.893402,0.113025,-0.009883985,-0.004356104,-0.021830541,-0.097331849,-0.088523956,-0.912102773
36921.5,-0.305919,-0.917477,-0.209485,0.216793,0.871406,0.114844,0.000434482,-0.004238084,-0.010446416,-0.068652564,-0.074946451,-0.899559126
36931.375,-0.310563,-0.936546,-0.198735,0.233409,0.842688,0.116663,0.00358633,0.001946662,0.006502229,-0.04605,-0.06034463,-0.878891919
36941.25,-0.32523,-0.949014,-0.180899,0.257694,0.80786,0.119695,-0.006003529,0.013625496,0.019266833,-0.012862346,-0.044209341,-0.855132133
36951.125,-0.323275,-0.95537,-0.172348,0.280063,0.766311,0.134854,-0.002180607,0.023072018,0.02293955,0.021454874,-0.022977736,-0.826356549
37012,-0.302008,-0.938257,-0.204599,0.40085,0.595837,0.159109,0.00684822,-0.009594537,0.00660659,0.192939826,0.033886284,-0.708973956
37022,-0.315697,-0.952436,-0.19678,0.418744,0.572618,0.166385,0.009093001,-0.005797224,0.022450492,0.209051677,0.04876744,-0.696305258
37032,-0.331341,-0.955614,-0.192138,0.45645,0.550622,0.171236,0.008020216,-0.005395803,0.029470032,0.243079292,0.0590871,-0.691573662
37042,-0.334764,-0.948525,-0.188473,0.478179,0.524348,0.188214,0.005670353,0.002600764,0.02335222,0.269588917,0.07483477,-0.678779835
37052,-0.338675,-0.943635,-0.194581,0.509495,0.495019,0.199129,0.002426328,0.001194514,0.021274802,0.307709357,0.084959941,-0.665115091
37062,-0.342341,-0.950725,-0.197025,0.534419,0.456525,0.216107,0.01530109,-0.001894653,0.029396194,0.335370149,0.107515684,-0.645513919
37072,-0.350897,-0.957325,-0.199468,0.557426,0.429029,0.239755,0.003191412,-2.51E-05,0.038930776,0.370401562,0.131186152,-0.63076538
37082,-0.354075,-0.972238,-0.210218,0.583629,0.399089,0.262191,0.005596385,-0.007616748,0.055802116,0.404649595,0.157798351,-0.616439248
37143,-0.332075,-0.974193,-0.268124,0.669266,0.196842,0.466536,-0.004582467,0.000448957,0.063576554,0.541970458,0.39479243,-0.504704419
37153,-0.320097,-0.974682,-0.27692,0.67374,0.155904,0.497461,0.003330858,-0.007729704,0.062582201,0.559922411,0.432785494,-0.474217988
37163,-0.311541,-0.981039,-0.283516,0.6878,0.120465,0.514439,0.00831653,-0.013740684,0.067529234,0.586825501,0.456374172,-0.446751146
37173,-0.308119,-0.996929,-0.285715,0.689717,0.08747,0.541726,0.01236368,-0.011894556,0.081731699,0.599985196,0.488945671,-0.421636686
37183,-0.302252,-1.002552,-0.291823,0.689078,0.056919,0.556885,0.0170723,-0.01604445,0.086774383,0.610186423,0.50915362,-0.395757864
37193,-0.290274,-0.997907,-0.299398,0.688439,0.016592,0.573257,0.022677204,-0.026202332,0.080979056,0.623664174,0.533794,-0.359101802
37203,-0.268763,-0.986172,-0.293778,0.690995,-0.015792,0.572044,0.035474623,-0.025150545,0.062630358,0.638258384,0.539241973,-0.326805974
37213,-0.251163,-0.977616,-0.300131,0.685883,-0.051842,0.574469,0.050233133,-0.033926129,0.051294518,0.643421255,0.55092512,-0.292623164
37274,-0.221096,-0.962215,-0.350951,0.659041,-0.214983,0.667243,-0.004468193,-0.003890753,0.047794183,0.640303321,0.700172886,-0.159798426
37284,-0.213763,-0.95977,-0.351684,0.651372,-0.240035,0.689679,0.004121023,-0.003843254,0.044271495,0.63690107,0.72865824,-0.14482266
37294,-0.203985,-0.95977,-0.363167,0.632199,-0.252256,0.73455,0.016318617,-0.013183679,0.046048993,0.618320793,0.773962372,-0.146744714
37304,-0.194452,-0.958548,-0.378804,0.630921,-0.263865,0.764868,0.028508496,-0.026727618,0.048137023,0.61821115,0.805287309,-0.148446715
37314,-0.187118,-0.954392,-0.388333,0.61047,-0.273641,0.809133,0.03903714,-0.034938629,0.045913547,0.598069978,0.849044604,-0.153898644
37324,-0.184185,-0.941191,-0.402259,0.605997,-0.27303,0.848547,0.043514541,-0.050497201,0.037850391,0.591859766,0.884536393,-0.170608156
37334,-0.171963,-0.917722,-0.403481,0.594493,-0.287084,0.898875,0.053811966,-0.057845308,0.014071029,0.581340138,0.935324193,-0.176146853
37344,-0.159985,-0.898409,-0.40739,0.579794,-0.287695,0.934045,0.061646554,-0.068358529,-0.004898318,0.564821156,0.968697461,-0.184314534
37406,-0.103274,-0.912099,-0.461142,0.420023,-0.36896,1.143847,0.007861096,0.004905339,0.027207958,0.400074018,1.185235919,-0.236840364
37415.875,-0.09374,-0.908677,-0.481666,0.391264,-0.372015,1.171134,0.021425097,-0.011927447,0.032415573,0.372530778,1.209394435,-0.248240699
37425.75,-0.076385,-0.916989,-0.498035,0.345249,-0.383013,1.195388,0.042986659,-0.020150485,0.045221728,0.32907009,1.234826943,-0.248522829
37435.625,-0.060496,-0.931656,-0.515871,0.298596,-0.394012,1.21843,0.063420358,-0.026988557,0.064431789,0.285122052,1.259501395,-0.24766579
37445.5,-0.044851,-0.934346,-0.523445,0.251943,-0.413564,1.232983,0.08130402,-0.030737786,0.068388306,0.242703808,1.280942699,-0.234602217
37455.375,-0.018451,-0.922367,-0.519536,0.193786,-0.422729,1.249961,0.108003097,-0.03052023,0.052816615,0.18752155,1.299975545,-0.231418611
37465.25,-0.004762,-0.908432,-0.523934,0.143298,-0.436172,1.256631,0.122228483,-0.03803072,0.040861217,0.14077208,1.311941918,-0.221118576
37475.125,0.017727,-0.892786,-0.525644,0.082585,-0.455113,1.269365,0.142804066,-0.047259578,0.025210336,0.082188811,1.333133491,-0.203065809
37537,0.109883,-0.866873,-0.512451,-0.22929,-0.521103,1.35365,0.008799199,-0.005574858,0.012936619,-0.200286785,1.432412072,-0.254109079
37547,0.120639,-0.877141,-0.502433,-0.275304,-0.535768,1.375479,0.025043791,0.005161936,0.017700931,-0.243840467,1.460189737,-0.251336192
37557,0.130661,-0.882519,-0.493882,-0.31301,-0.556542,1.405191,0.041419274,0.012488486,0.018803216,-0.27919147,1.497894863,-0.246250088
37567,0.135794,-0.875918,-0.477023,-0.355829,-0.576095,1.43369,0.053491897,0.022459533,0.004916654,-0.319349956,1.533803994,-0.243777883
37577,0.149483,-0.865895,-0.465296,-0.384588,-0.596869,1.462189,0.073147306,0.028171687,-0.008800972,-0.345183253,1.569835425,-0.242120763
37587,0.174417,-0.835092,-0.449659,-0.422933,-0.608479,1.485231,0.105276625,0.027631652,-0.041800397,-0.380203611,1.596560559,-0.24793091
37597,0.196172,-0.811379,-0.439153,-0.453609,-0.629253,1.512518,0.133620451,0.026489658,-0.066662673,-0.40798261,1.631422563,-0.247874515
37607,0.225995,-0.798667,-0.42938,-0.48109,-0.65736,1.534347,0.16448666,0.027970937,-0.080504667,-0.435693882,1.664945221,-0.236471408
37669,0.359217,-0.836559,-0.430846,-0.580148,-0.836999,1.712619,0.007288672,0.007474615,0.007167858,-0.525121293,1.905150263,-0.254662467
37678.875,0.384884,-0.834604,-0.434266,-0.600599,-0.871827,1.738692,0.03966938,0.007494969,0.015705004,-0.548217793,1.944746583,-0.247526416
37688.75,0.411284,-0.828981,-0.424982,-0.625523,-0.89749,1.759309,0.076527109,0.016762074,0.015301119,-0.57330509,1.975484514,-0.246409595
37698.625,0.42644,-0.819447,-0.416675,-0.646613,-0.913377,1.788414,0.104092145,0.023617256,0.007754715,-0.590245532,2.00913303,-0.256486316
37708.5,0.433284,-0.807223,-0.412277,-0.678568,-0.929874,1.822371,0.124254574,0.026065074,-0.003406937,-0.616473871,2.047414797,-0.272413039
37718.375,0.440129,-0.7906,-0.407146,-0.712439,-0.942705,1.872699,0.145947918,0.027220543,-0.018935268,-0.64063701,2.098293198,-0.300022446
37728.25,0.459684,-0.776176,-0.40397,-0.735446,-0.95126,1.92424,0.179168217,0.02792784,-0.028367812,-0.652621107,2.148024969,-0.329469886
37738.125,0.469218,-0.774465,-0.411055,-0.781461,-0.960425,1.991547,0.187630878,0.02085597,-0.023635589,-0.688662109,2.211414676,-0.367078408
37800,0.579952,-0.662011,-0.333359,-1.145101,-0.973867,2.482703,0.014945232,0.005706083,-0.059003087,-0.73914115,2.656882619,-0.904506788
37809.875,0.619796,-0.608228,-0.296221,-1.183446,-0.974478,2.553042,0.10171435,0.01796474,-0.088316545,-0.739612506,2.721944724,-0.955073568
37819.75,0.651574,-0.572781,-0.263482,-1.224348,-0.9757,2.63672,0.171710965,0.03273736,-0.110341006,-0.739030831,2.799547697,-1.009790571
37829.625,0.697041,-0.55029,-0.224634,-1.25055,-0.972034,2.70524,0.248984776,0.056876448,-0.12027429,-0.729120731,2.861505971,-1.052243031
37839.5,0.730286,-0.538555,-0.182609,-1.267806,-0.978144,2.751324,0.312592234,0.087794404,-0.133233933,-0.723326683,2.908210436,-1.073774677
37849.375,0.745441,-0.512153,-0.146938,-1.278031,-0.982422,2.77861,0.366001601,0.105160391,-0.166598611,-0.71641628,2.937346353,-1.08532662
37859.25,0.758397,-0.482328,-0.114442,-1.277392,-0.984866,2.799227,0.417428755,0.11690203,-0.204393043,-0.701721425,2.959242854,-1.089877026
37869.125,0.776242,-0.473527,-0.100271,-1.268445,-0.994031,2.821662,0.440575988,0.123863143,-0.207923958,-0.691367989,2.982829731,-1.087917224
37931,0.903109,-0.404344,0.026046,-1.146379,-0.946372,2.736165,0.019621879,0.006844013,-0.010380643,-1.487833037,2.67403038,-0.576470349
37940.875,0.916309,-0.38992,0.045592,-1.116981,-0.924986,2.705846,0.055343398,0.0341714,-0.005259911,-1.45065742,2.648600072,-0.552592923
37950.75,0.947109,-0.384542,0.065382,-1.064576,-0.900545,2.653092,0.090301354,0.061567281,0.018438977,-1.398512908,2.600828176,-0.512888839
37960.625,0.976198,-0.389676,0.071002,-1.047321,-0.878549,2.594881,0.115778503,0.07452108,0.044458305,-1.364856608,2.546407552,-0.505086176
37970.5,0.994042,-0.37623,0.080042,-0.992359,-0.857774,2.545766,0.151780883,0.091318096,0.051046527,-1.314517378,2.501435974,-0.465122864
37980.375,1.003331,-0.353495,0.086395,-0.957209,-0.824168,2.48331,0.19095142,0.105072352,0.044793407,-1.261921797,2.442812031,-0.450059192
37990.25,1.012376,-0.327092,0.090792,-0.912473,-0.785063,2.413578,0.232617812,0.115936292,0.035656921,-1.199694295,2.377166038,-0.429074446
38000.125,1.024843,-0.313647,0.103742,-0.876045,-0.744125,2.340814,0.250216772,0.129393457,0.039273264,-1.144128053,2.305956003,-0.417282818
38061,1.074465,-0.199481,0.085906,-0.638305,-0.404399,1.934549,0.005475076,0.006941389,0.096161205,-1.236167155,1.619161672,-0.404546538
38071,1.088887,-0.169656,0.088349,-0.617854,-0.350629,1.893922,0.039898918,0.026562986,0.10452075,-1.163949485,1.605176778,-0.400317263
38081,1.111132,-0.167456,0.087128,-0.576314,-0.274863,1.847232,0.051388094,0.035084715,0.125333483,-1.064823096,1.59279343,-0.386153367
38091,1.122376,-0.173079,0.069536,-0.55075,-0.195431,1.792053,0.059335548,0.023191759,0.135984558,-0.96255583,1.573864486,-0.38653544
38101,1.126287,-0.159144,0.063917,-0.51624,-0.117221,1.718682,0.078511803,0.027910198,0.136218078,-0.852362746,1.537881582,-0.377505372
38111,1.128976,-0.122475,0.056831,-0.512405,-0.037177,1.643493,0.118148278,0.038749011,0.130201838,-0.746552595,1.499608872,-0.39855076
38121,1.117976,-0.141054,0.05341,-0.502819,0.026368,1.584069,0.103911606,0.028673351,0.122942302,-0.660371088,1.470603725,-0.405008056
38131,1.106732,-0.136165,0.069292,-0.500262,0.098469,1.517369,0.100085375,0.044933849,0.111828168,-0.570465764,1.434841187,-0.422097706
38192,1.044643,0.007092,0.025557,-0.442745,0.537179,1.550719,0.003791313,0.029083955,0.044567951,-1.649644542,0.098157525,-0.397934435
38202,1.047332,-0.001219,0.029711,-0.424211,0.588505,1.56224,0.006411801,0.025125937,0.047433112,-1.674747246,0.14942244,-0.373873671
38212,1.051243,0.004648,0.035086,-0.408873,0.629443,1.570729,0.00472529,0.03463576,0.051257586,-1.694075947,0.191118713,-0.352342924
38222,1.048309,0.038628,0.037774,-0.380114,0.666715,1.562846,-0.003430046,0.071821252,0.047234787,-1.695206614,0.23374762,-0.32112264
38232,1.04782,0.080921,0.023358,-0.357107,0.691156,1.565272,0.000862569,0.122207516,0.044071423,-1.702365489,0.26059515,-0.298898592
38242,1.054665,0.063075,0.006744,-0.323874,0.72965,1.54223,0.022993881,0.115187918,0.050021535,-1.687889792,0.307828621,-0.268377448
38252,1.049287,0.033984,0.018472,-0.299589,0.760201,1.50888,0.019241148,0.090094106,0.045950365,-1.661498898,0.349201831,-0.248711631
38262,1.05662,0.03325,0.008943,-0.27786,0.788918,1.48705,0.028964754,0.092145011,0.052759091,-1.6465233,0.383611728,-0.229605223
38321,1.048065,0.180663,-0.075838,-0.133427,0.91601,1.633791,-0.019782175,-0.00688966,0.066016869,-0.232709632,-1.860167153,-0.108510401
38331,1.042687,0.174796,-0.087566,-0.122562,0.943506,1.634397,-0.03238772,0.002681754,0.060359123,-0.25626678,-1.87087841,-0.103052819
38341,1.033643,0.16624,-0.091964,-0.125758,0.963669,1.630153,-0.034973942,0.014770814,0.050271209,-0.278217982,-1.874855333,-0.096871333
38351,1.024598,0.249358,-0.10247,-0.141735,0.993609,1.637429,-0.124215496,-0.004873388,0.052153665,-0.306326541,-1.892947103,-0.106942518
38361,1.006265,0.229801,-0.110044,-0.141096,1.010718,1.645312,-0.119495699,0.013481732,0.031031742,-0.319946566,-1.906857903,-0.100188152
38371,0.998198,0.270627,-0.112243,-0.133427,1.029659,1.669567,-0.16690101,0.004044771,0.026822479,-0.327968566,-1.936596546,-0.086514897
38381,0.991842,0.298007,-0.1098,-0.121923,1.033937,1.725352,-0.200446888,-0.005359174,0.021962372,-0.309824847,-1.989811676,-0.073406529
38391,0.99942,0.312675,-0.122016,-0.100833,1.040658,1.765372,-0.217666014,0.000402908,0.031559616,-0.298394049,-2.029236523,-0.053242734
38451,0.926087,0.384548,-0.147426,0.038488,1.01194,2.010344,-0.021716483,-0.007312199,0.013273728,-0.189202624,-2.240501493,0.106500302
38461,0.928776,0.384303,-0.15329,0.077472,0.99972,2.026716,-0.034954761,-0.003768049,0.016157195,-0.156441429,-2.252064388,0.129428765
38471,0.922175,0.390659,-0.169904,0.101757,0.982,2.035205,-0.060655498,0.007531559,0.013978669,-0.126833638,-2.254179567,0.139016492
38481,0.908487,0.410705,-0.189451,0.145215,0.970391,2.044301,-0.101132848,0.017052198,0.009653543,-0.095052731,-2.25916523,0.170440928
38491,0.875242,0.426351,-0.197513,0.189312,0.956948,2.041875,-0.140041913,0.017950742,-0.01668868,-0.065190495,-2.252668757,0.20512361
38501,0.85642,0.448598,-0.204354,0.237244,0.950838,2.037631,-0.178717412,0.015128916,-0.028255619,-0.041571501,-2.247141545,0.246869194
38511,0.850797,0.46351,-0.208264,0.258334,0.937396,2.035812,-0.205315127,0.011694788,-0.030577554,-0.01948285,-2.24092735,0.260467364
38521,0.850064,0.473289,-0.219747,0.294762,0.936785,2.020046,-0.218195292,0.018661172,-0.026890242,-0.012739505,-2.226385572,0.296785449
38580,0.762064,0.547851,-0.261283,0.420023,0.945339,1.862391,-0.008588736,-0.001837808,-0.02579575,0.226042549,-2.087773505,0.358736588
38590,0.761575,0.566675,-0.269834,0.42897,0.947172,1.830254,-0.033640197,-0.004965486,-0.013708408,0.224252767,-2.059689152,0.371982601
38600,0.77013,0.584276,-0.28205,0.451338,0.941673,1.793265,-0.0535019,-0.004924253,0.005556643,0.23422781,-2.024210806,0.39237907
38610,0.777464,0.612145,-0.30233,0.472428,0.938618,1.745969,-0.084296598,-0.002840472,0.031242559,0.237860036,-1.980762977,0.415451977
38620,0.771841,0.645148,-0.32945,0.485848,0.939229,1.696853,-0.12864846,0.00348486,0.050680353,0.233410546,-1.937121766,0.436564175
38630,0.751797,0.691352,-0.349973,0.4916,0.941673,1.656227,-0.188328214,-0.002233209,0.063096851,0.226035529,-1.901880184,0.450850509
38640,0.730775,0.720199,-0.369764,0.478819,0.960614,1.599228,-0.235324488,-0.000699961,0.064925355,0.189514346,-1.859767504,0.463601373
38650,0.705597,0.719221,-0.374895,0.448142,0.977112,1.531315,-0.25116791,0.004185609,0.045270011,0.134136117,-1.807265248,0.465085549
38709,0.626396,0.777404,-0.32383,0.489683,0.944728,1.209941,-0.002792256,-0.003167036,0.04956037,0.157941223,-1.48105533,0.614644074
38719,0.623708,0.782294,-0.326518,0.522276,0.929453,1.162038,-0.012832215,0.002388279,0.052349375,0.187913194,-1.426556184,0.645456038
38729,0.623463,0.792561,-0.323097,0.558065,0.913566,1.096551,-0.019498679,-0.002499104,0.058708779,0.217841916,-1.356599838,0.67870852
38739,0.620041,0.817741,-0.324075,0.589381,0.905012,1.026212,-0.037880306,-0.008626635,0.075484288,0.238213254,-1.284139224,0.71677657
38749,0.612952,0.844388,-0.318455,0.607914,0.894013,0.968001,-0.056931815,-0.022189523,0.089211288,0.253183138,-1.222055459,0.740488599
38759,0.594374,0.866634,-0.314302,0.637312,0.88607,0.877652,-0.081889775,-0.033587355,0.093291655,0.266391731,-1.131136612,0.78174489
38769,0.561618,0.869812,-0.304773,0.643703,0.874461,0.798825,-0.105931186,-0.04268607,0.073233785,0.265545754,-1.049544597,0.803180282
38779,0.522263,0.876168,-0.280096,0.666071,0.855519,0.719391,-0.133754325,-0.069773076,0.046959537,0.27130387,-0.968182717,0.825895383
38839,0.484129,0.926284,-0.248089,0.878887,0.688101,0.300392,0.008905917,-0.003701066,0.074168551,0.531969766,-0.466491006,0.914086981
38849,0.468973,0.933129,-0.247356,0.893586,0.670381,0.222171,-0.005638024,-0.003258855,0.073223177,0.548171452,-0.378462546,0.923872685
38859,0.456018,0.911372,-0.232941,0.907007,0.652662,0.136673,-0.00820204,-0.008206353,0.045312504,0.557186775,-0.282819413,0.936410685
38869,0.453084,0.89817,-0.20973,0.908285,0.636775,0.053601,-0.002358932,-0.023961234,0.027327323,0.554501532,-0.190412227,0.943190513
38879,0.451862,0.906971,-0.190916,0.924901,0.609279,-0.003397,-0.002839031,-0.041616596,0.030283737,0.574414457,-0.119497769,0.939384168
38889,0.447707,0.91186,-0.185053,0.949186,0.578728,-0.070098,-0.004983965,-0.046238341,0.031509576,0.600605491,-0.037991699,0.937349223
38899,0.452351,0.924817,-0.193115,0.977306,0.546344,-0.121032,-0.003032177,-0.0396383,0.046719124,0.633947533,0.029121815,0.930338634
38909,0.451862,0.950242,-0.190428,1.005426,0.506628,-0.174999,-0.013298697,-0.049233966,0.068082913,0.665741437,0.093624087,0.919891783
38969,0.408106,0.961976,-0.10809,1.108319,0.375871,-0.2799,0.000193792,-0.018198109,0.050381155,0.862321233,0.228910902,0.80746264
38979,0.417395,0.979089,-0.116397,1.108319,0.348986,-0.269592,-0.002846759,-0.013916621,0.070598123,0.868096347,0.227415543,0.785832669
38989,0.428395,0.993023,-0.123971,1.091703,0.310492,-0.278081,-0.008613647,-0.015239302,0.088429755,0.858571385,0.242188451,0.754817657
38999,0.44184,0.997668,-0.130812,1.054636,0.282385,-0.287177,-0.001288202,-0.02662375,0.098619734,0.831548476,0.249024867,0.721791353
39009,0.447951,0.995957,-0.149625,1.011817,0.271387,-0.298091,-0.005079686,-0.020726651,0.10205385,0.788656975,0.25803801,0.705492276
39019,0.453573,0.994734,-0.16062,0.945352,0.251223,-0.332654,-1.96E-05,-0.007626346,0.104972769,0.731631852,0.300685922,0.664653964
39029,0.456507,0.986911,-0.150847,0.861631,0.251834,-0.358122,0.007801885,-0.012931834,0.097687879,0.651471836,0.329686785,0.633222537
39039,0.454062,0.975177,-0.126903,0.779189,0.24328,-0.382376,0.01250856,-0.034506463,0.08254316,0.57743444,0.353021594,0.595379949
39099,0.427662,0.975177,-0.050184,0.374647,0.182178,-0.26656,-0.010534797,-0.003538095,0.065954925,0.260658457,0.256525833,0.332949092
39109,0.429129,0.958798,-0.050184,0.302431,0.177901,-0.239274,-0.010677316,0.001116202,0.051593308,0.194278906,0.231001361,0.298763117
39119,0.425707,0.925306,-0.046764,0.242356,0.16568,-0.21987,-0.004481803,0.005887018,0.019583136,0.143605122,0.213937232,0.261031683
39129,0.423995,0.909171,-0.040411,0.179087,0.155293,-0.213807,-0.008837238,-0.002925559,0.00394724,0.088164205,0.207215985,0.226252318
39139,0.419351,0.89817,-0.039922,0.136268,0.151016,-0.208956,-0.010169504,-0.01119579,-0.008067738,0.050772035,0.200527726,0.20554377
39149,0.419595,0.87079,-0.048474,0.083224,0.140018,-0.215019,0.007549043,-0.00859128,-0.032242738,0.00824199,0.205452316,0.174602005
39159,0.40884,0.861256,-0.058003,0.037849,0.133297,-0.232604,0.00748702,-0.005527304,-0.044913729,-0.02987253,0.222022727,0.152048672
39169,0.39344,0.854167,-0.077304,-0.025421,0.126575,-0.242306,-0.004195573,0.014189156,-0.056520657,-0.084788063,0.231938231,0.119980402
39229,0.391729,0.791583,-0.13692,-0.530939,0.133297,-0.360547,-0.007067695,0.008309194,-0.106309144,-0.560910696,0.332499303,-0.066946658
39239,0.39124,0.778627,-0.133255,-0.612103,0.131464,-0.371462,-0.0077106,0.008576534,-0.118550837,-0.63237178,0.343973731,-0.108281523
39249,0.394662,0.766403,-0.12788,-0.689432,0.128408,-0.373281,-0.005884498,0.01417112,-0.128650759,-0.698300811,0.34573437,-0.154879064
39259,0.400529,0.758336,-0.11884,-0.762927,0.130852,-0.366611,0.00618016,0.02097691,-0.134470284,-0.76401471,0.336853245,-0.190774457
39269,0.407862,0.781805,-0.107112,-0.808941,0.119243,-0.35509,-0.00056646,0.019810287,-0.111939934,-0.797170067,0.32500881,-0.23147894
39279,0.421795,0.79745,-0.093919,-0.856873,0.112522,-0.349026,0.001732926,0.018915366,-0.093193786,-0.834190236,0.317410116,-0.268494239
39289,0.424729,0.796228,-0.079748,-0.887549,0.094191,-0.338112,0.002008083,0.018886827,-0.094255693,-0.849939642,0.305940363,-0.308120098
39299,0.422773,0.780827,-0.061668,-0.901609,0.074639,-0.332654,0.008559602,0.002212685,-0.109970454,-0.852975514,0.301900804,-0.332290731
39360,0.438662,0.727778,-0.096851,-0.788491,-0.153882,-0.386014,0.002250798,-0.002472828,-0.1447491,-0.623977244,0.407552717,-0.488833016
39370,0.436951,0.719955,-0.106868,-0.766762,-0.194209,-0.389046,0.003109883,0.006285708,-0.151098966,-0.58219051,0.420166733,-0.511382456
39380,0.436462,0.711887,-0.108578,-0.742476,-0.234536,-0.392078,0.00327906,0.00763266,-0.157977227,-0.536401156,0.432055986,-0.534419619
39390,0.436951,0.68573,-0.112243,-0.724582,-0.274252,-0.387227,0.012725415,0.013420357,-0.179385439,-0.494995346,0.435777765,-0.561476029
39400,0.441107,0.667395,-0.113465,-0.689432,-0.324967,-0.385408,0.021586878,0.015106814,-0.192428598,-0.432850902,0.443500581,-0.587713103
39410,0.44184,0.651749,-0.114931,-0.645335,-0.382402,-0.385408,0.02618995,0.016267118,-0.204853506,-0.359114411,0.453373296,-0.613773063
39420,0.447707,0.666661,-0.113953,-0.596125,-0.440449,-0.379344,0.019843524,0.009783974,-0.189213813,-0.280713287,0.457301794,-0.636661077
39430,0.445996,0.683774,-0.111755,-0.544359,-0.49483,-0.376919,0.009341788,0.005535859,-0.176088245,-0.20788345,0.459444899,-0.654939874
39492,0.456996,0.629502,-0.077549,-0.158351,-0.882826,-0.29506,0.002159518,0.00339394,-0.218261056,0.36365629,0.394544413,-0.776920844
39502,0.47264,0.650038,-0.073395,-0.112976,-0.931096,-0.301123,0.000714,-0.001582087,-0.192954906,0.433816563,0.400892151,-0.788331828
39512,0.477529,0.654682,-0.072907,-0.080382,-0.974478,-0.316282,-0.00227213,-0.011597281,-0.186477881,0.49225658,0.425188652,-0.795613607
39522,0.476551,0.63268,-0.081458,-0.056097,-1.010528,-0.326591,0.005807395,-0.009929679,-0.203829215,0.539781625,0.443931973,-0.80158318
39532,0.475573,0.589899,-0.099294,-0.044594,-1.028859,-0.35509,0.026017319,0.003990303,-0.236248088,0.566481976,0.478359339,-0.798059452
39542,0.454062,0.517537,-0.109556,-0.059293,-1.036191,-0.376313,0.048118252,0.016292775,-0.304702551,0.566686621,0.504855623,-0.801751829
39552,0.432551,0.457887,-0.111266,-0.079104,-1.027026,-0.398142,0.062636069,0.021406666,-0.363792901,0.55455478,0.528123475,-0.795683034
39562,0.423018,0.432463,-0.094652,-0.09636,-1.020305,-0.389046,0.070845453,0.008839145,-0.391863283,0.536942906,0.519536802,-0.802145972
39624,0.464573,0.467177,-0.092453,-0.135344,-0.793617,-0.045237,-0.0071479,-0.00331955,-0.334742255,0.448651326,0.199116637,-0.639731881
39634,0.478507,0.452509,-0.091231,-0.112976,-0.707464,-0.013099,0.007864643,-0.000648507,-0.335173582,0.414115913,0.147706859,-0.565801349
39644,0.475573,0.438086,-0.075838,-0.08933,-0.608479,0.0154,0.016492067,-0.009865457,-0.349253422,0.366491915,0.096843965,-0.484529282
39654,0.462373,0.436863,-0.045053,-0.065683,-0.531491,0.047537,0.01098623,-0.036382184,-0.363428335,0.333685469,0.047620129,-0.418859209
39664,0.457973,0.439552,-0.02282,-0.01903,-0.43495,0.074824,0.006905284,-0.055245927,-0.367255038,0.302584106,0.000893281,-0.321845204
39674,0.475085,0.445175,-0.016223,0.032736,-0.341464,0.106355,0.013465454,-0.059147419,-0.351563428,0.277189602,-0.048053571,-0.223243083
39684,0.493174,0.45691,-0.012069,0.094088,-0.245534,0.128184,0.01457186,-0.060904968,-0.330514191,0.255234645,-0.086232327,-0.113973227
39694,0.518107,0.452265,-0.004739,0.140742,-0.013959,0.131822,0.036009408,-0.067304076,-0.316498401,0.12309719,-0.127356581,0.077508626
39755,0.667219,0.58941,0.050479,0.609192,0.20723,-0.272624,0.012130554,-0.007230485,-0.108409264,0.27306715,0.286321111,0.576053438
39764.875,0.654752,0.587454,0.047058,0.692913,0.215784,-0.32841,-0.001761994,-0.00718137,-0.119112855,0.31876422,0.342256474,0.644821034
39774.75,0.636174,0.569364,0.041683,0.747874,0.229226,-0.387834,0.005195921,0.000911074,-0.145247189,0.350073144,0.408165032,0.687841109
39784.625,0.640819,0.580609,0.069292,0.79964,0.234725,-0.449077,0.007480955,-0.022807745,-0.132831605,0.386893249,0.47554258,0.72136189
39794.5,0.669663,0.651749,0.105941,0.859075,0.239003,-0.480001,-0.015766536,-0.052059101,-0.061122982,0.429389524,0.513147983,0.760155927
39804.375,0.707552,0.701375,0.106674,0.922984,0.229226,-0.518202,-0.011180265,-0.048412617,0.000733374,0.488131323,0.55677144,0.790386432
39814.25,0.722952,0.727044,0.083463,0.98178,0.212118,-0.552159,-0.006112927,-0.037183719,0.028007124,0.54681266,0.585054774,0.820044147
39824.125,0.710241,0.718977,0.03191,1.009261,0.196231,-0.566105,-0.008924545,0.013681014,0.011000314,0.577575135,0.599099567,0.827693128
39884,0.662819,0.806985,0.007233,0.893586,0.287884,-0.277475,0.001698039,-0.013837115,0.044227841,0.508515262,0.273501501,0.790553395
39893.875,0.636174,0.773004,-0.039189,0.859075,0.30927,-0.181063,0.001587703,0.020280936,0.00168582,0.466576679,0.170692867,0.787154207
39903.75,0.594374,0.698931,-0.086589,0.794527,0.341043,-0.115575,0.012737591,0.058879782,-0.080405755,0.394254059,0.098856875,0.771836846
39913.625,0.574574,0.656394,-0.087566,0.71592,0.375871,-0.058577,0.014799118,0.055810253,-0.125172948,0.304197481,0.038448165,0.750491406
39923.5,0.594618,0.665194,-0.0409,0.635395,0.41131,-0.019769,0.021703207,0.014728188,-0.107229881,0.217627066,0.004772253,0.725195988
39933.375,0.618819,0.709198,0.001369,0.55487,0.427807,0.026314,0.013187604,-0.022140825,-0.059129922,0.147291813,-0.036250365,0.684531231
39943.25,0.628841,0.747824,0.010165,0.494796,0.428418,0.070579,0.006948579,-0.033945413,-0.023483491,0.110241928,-0.081746696,0.643825019
39953.125,0.632752,0.771048,-0.02453,0.436639,0.419864,0.111812,-0.006363698,-0.000308232,-0.002276972,0.072769643,-0.123555889,0.599065806
40013,0.652308,0.88228,0.006744,0.007172,0.35143,0.383464,0.007599029,0.005633457,0.09721453,-0.201930487,-0.379780811,0.292557235
40022.875,0.646441,0.913572,0.013585,-0.008805,0.31538,0.43925,-0.01013996,-0.004659395,0.119178176,-0.191589351,-0.437257046,0.254130736
40032.75,0.632263,0.917728,-0.002296,-0.01903,0.265276,0.515046,-0.025893153,0.003655807,0.114137619,-0.170064877,-0.515081946,0.20438788
40042.625,0.604396,0.878369,-0.037235,-0.022865,0.213951,0.593873,-0.031198242,0.030513351,0.065977802,-0.143016434,-0.595287335,0.155442167
40052.5,0.582641,0.82043,-0.080236,-0.023504,0.179123,0.643595,-0.022039621,0.066075632,0.007056106,-0.123172716,-0.645836208,0.120731462
40062.375,0.564307,0.757602,-0.103447,-0.029255,0.131464,0.669063,-0.007519343,0.082889733,-0.053333631,-0.099655619,-0.671249612,0.072640569
40072.25,0.584596,0.758336,-0.088299,-0.044594,0.092969,0.677552,-0.002575115,0.060557589,-0.04033921,-0.08902949,-0.679026124,0.026567747
40082.125,0.634219,0.798184,-0.062645,-0.058653,0.049587,0.672094,0.012376347,0.0331936,0.020784426,-0.073606246,-0.672257636,-0.016161099
40142,0.537418,0.744401,-0.024041,0.032097,-0.298693,0.34405,0.001757729,0.005264488,-0.081578462,0.205880978,-0.336106488,-0.230789038
40152,0.551107,0.78376,-0.004984,0.035292,-0.343297,0.279776,-0.008256206,-0.009364756,-0.04194591,0.23220354,-0.272878267,-0.262663155
40162,0.577507,0.818475,0.000147,0.04424,-0.3989,0.189427,-0.004930922,-0.009752527,0.001646772,0.269430405,-0.183950339,-0.300882877
40172,0.603174,0.854411,0.003812,0.055743,-0.450225,0.105748,0.001585028,-0.009498966,0.04582925,0.305315243,-0.102101157,-0.336675553
40182,0.606107,0.856122,-0.005717,0.060856,-0.50094,0.008123,-0.004014986,-0.011093818,0.048906128,0.3405603,-0.001484097,-0.372460466
40192,0.589974,0.811874,-0.020132,0.056382,-0.536379,-0.059183,0.003441421,-0.00710963,0.003768708,0.359704325,0.069235307,-0.400253994
40202,0.579952,0.788405,-0.031371,0.047435,-0.57915,-0.142862,0.004592849,-0.006002576,-0.020789205,0.380384025,0.156957777,-0.43444977
40212,0.592174,0.810407,-0.03357,0.034653,-0.607257,-0.225327,0.001527535,-0.00473679,0.004256803,0.387168153,0.240471807,-0.461528204
40272,0.621507,0.805518,0.003323,-0.006887,-0.763066,-0.407844,0.011879933,0.002129822,0.017347322,0.457085083,0.400495754,-0.615897928
40282,0.63153,0.82752,0.00821,-0.018391,-0.776509,-0.392078,0.010186204,0.001645952,0.040951693,0.45613319,0.379077436,-0.636610104
40292,0.643996,0.854411,0.024824,-0.024782,-0.786285,-0.361153,0.007515477,-0.010286495,0.070141552,0.456331534,0.342453663,-0.650981381
40302,0.655974,0.879591,0.052433,-0.020947,-0.782619,-0.32174,0.003932767,-0.033169206,0.098005361,0.456765657,0.297664799,-0.647463285
40312,0.657441,0.882036,0.073201,-0.004331,-0.791784,-0.268986,0.003196037,-0.04983518,0.101399474,0.47538042,0.239034807,-0.645112351
40322,0.652063,0.861256,0.079553,0.00909,-0.797283,-0.218657,0.008717223,-0.053323431,0.081830557,0.490017033,0.183077683,-0.64024961
40332,0.639108,0.82972,0.074178,0.025067,-0.803393,-0.164691,0.010844771,-0.046761618,0.048852912,0.508773667,0.123924056,-0.631651784
40342,0.635441,0.797206,0.061962,0.027623,-0.805226,-0.111937,0.027954637,-0.036101303,0.020331904,0.509417119,0.071100927,-0.630175127
40403,0.69533,0.831431,0.059763,-0.047789,-0.669581,0.032985,-0.007567632,0.004484062,0.085474807,0.39291387,-0.085223977,-0.53857783
40412.875,0.681886,0.804295,0.066115,-0.078465,-0.643307,0.038442,-0.004767305,0.001727523,0.056505772,0.353887176,-0.093311208,-0.536223204
40422.75,0.677241,0.791094,0.072468,-0.107863,-0.612756,0.045112,-0.003097361,0.00057156,0.043899794,0.312362536,-0.10212985,-0.530225022
40432.625,0.684086,0.791094,0.086639,-0.152599,-0.57915,0.050569,0.001216782,-0.00673326,0.049410726,0.255696968,-0.109126751,-0.532887243
40442.5,0.683352,0.796717,0.100077,-0.190305,-0.541878,0.06876,-0.000304966,-0.013027749,0.054311873,0.199234575,-0.127612882,-0.527822161
40452.375,0.678219,0.808451,0.107162,-0.213312,-0.502162,0.085132,-0.004360473,-0.014109623,0.06058457,0.150383669,-0.142457976,-0.511865821
40462.25,0.665752,0.824342,0.109117,-0.246545,-0.457557,0.103929,-0.014177194,-0.011873267,0.0650493,0.089571763,-0.157304609,-0.498172903
40472.125,0.644241,0.834854,0.107162,-0.260605,-0.416008,0.137279,-0.037255629,-0.008553939,0.059268715,0.049839659,-0.185311959,-0.47222731
40532,0.620041,0.810896,0.108628,-0.31301,-0.257755,0.228234,-0.001092859,0.010165135,0.026498262,-0.114021808,-0.263656104,-0.366043911
40542,0.62713,0.822386,0.12964,-0.320679,-0.244312,0.207012,-0.002388129,0.000837578,0.042310364,-0.127849332,-0.243703493,-0.360056243
40552,0.630308,0.835098,0.144789,-0.31301,-0.232092,0.185789,-0.004030763,-0.003211173,0.056226368,-0.129509398,-0.223322324,-0.345997059
40562,0.629574,0.840721,0.148454,-0.30598,-0.222927,0.144556,-0.009862683,0.004581778,0.060705212,-0.125726606,-0.184017675,-0.33844787
40572,0.639108,0.838276,0.154073,-0.292559,-0.223538,0.089377,-0.014202379,0.003810224,0.065217326,-0.105819331,-0.130837382,-0.339458543
40582,0.648397,0.833387,0.15505,-0.28489,-0.226593,0.027527,-0.016731608,0.000823989,0.067104699,-0.087905298,-0.069669398,-0.347394975
40592,0.65573,0.82752,0.155295,-0.278499,-0.235758,-0.023408,-0.007280056,-0.009189373,0.067122428,-0.072113755,-0.017908247,-0.358008887
40602,0.661841,0.829964,0.086883,-0.269552,-0.236369,-0.09981,0.003382237,0.058608271,0.063473571,-0.056501652,0.057227785,-0.363349921
40662,0.720264,0.888636,0.180216,-0.338573,-0.238813,-0.466055,0.003588897,-0.009220696,0.1579439,-0.061408418,0.413281521,-0.462923297
40672,0.731019,0.901837,0.179239,-0.350716,-0.238813,-0.490309,-0.002903504,-0.009397506,0.174618503,-0.062887419,0.438947767,-0.473081713
40682,0.735664,0.910149,0.173619,-0.373084,-0.235147,-0.49516,0.00917939,-0.010477922,0.183014046,-0.08500169,0.448474051,-0.480952125
40692,0.734197,0.909171,0.167022,-0.388422,-0.229037,-0.486671,0.012682249,0.007747569,0.180386643,-0.101081691,0.437237422,-0.48865549
40702,0.727352,0.912838,0.17142,-0.408873,-0.216817,-0.460598,0.017943376,0.013616449,0.179487851,-0.131800322,0.411380789,-0.489624122
40712,0.718064,0.914794,0.180949,-0.42485,-0.197875,-0.407844,0.025158501,0.009602109,0.17663986,-0.168506451,0.363024771,-0.475191917
40722,0.708775,0.927995,0.190722,-0.426128,-0.181378,-0.34175,0.012597111,-0.0046787,0.183102288,-0.188872387,0.305975382,-0.449424522
40732,0.708775,0.942419,0.194876,-0.441466,-0.15877,-0.271411,0.00372826,-0.005608378,0.195176503,-0.224700882,0.242653268,-0.429410035
40793,0.707797,1.000357,0.195364,-0.443384,-0.018236,0.321615,0.001876153,0.014214351,0.240827242,-0.390027707,-0.320918535,-0.212715335
40803,0.706819,1.007936,0.205137,-0.423572,-0.001127,0.419846,0.002169061,0.016657801,0.247929117,-0.395598433,-0.414450315,-0.165583783
40813,0.713175,1.021137,0.217598,-0.410151,0.014148,0.514439,-0.014393664,0.002294171,0.264308428,-0.402570945,-0.502758236,-0.135064
40823,0.726864,1.035805,0.226883,-0.372445,0.026368,0.579927,-0.004956076,0.002018802,0.28556234,-0.386914367,-0.564225503,-0.087594116
40833,0.739819,1.060496,0.229326,-0.349438,0.027591,0.642989,-0.011165382,-0.001653427,0.313181988,-0.375874051,-0.625003026,-0.066279317
40843,0.752286,1.077853,0.223951,-0.30598,0.031868,0.670882,-0.008183435,0.00215874,0.333335568,-0.345873344,-0.651037806,-0.035261766
40853,0.761819,1.090565,0.225661,-0.275304,0.032479,0.695136,-0.007080941,0.016306387,0.349187554,-0.323671343,-0.67472674,-0.006474871
40863,0.767441,1.096921,0.237633,-0.247184,0.044088,0.704838,-0.007363726,0.005995696,0.359625183,-0.308121613,-0.681526301,0.020573307
40923,0.775753,1.127479,0.171176,-0.205643,0.138796,0.407112,-0.00582264,-0.007601172,0.379206712,-0.281581715,-0.382070155,0.045029852
40933,0.768175,1.115256,0.156516,-0.229929,0.171791,0.332529,-0.009381642,-0.001661389,0.363193038,-0.313790081,-0.303836571,0.046627795
40943,0.771108,1.107189,0.143811,-0.259327,0.217006,0.22399,-0.002572498,0.003312237,0.356885789,-0.354199973,-0.190321862,0.053231429
40953,0.771841,1.1067,0.132572,-0.294476,0.26161,0.109387,0.000130032,0.009536207,0.355731462,-0.398451272,-0.07136388,0.057141952
40963,0.773553,1.108166,0.127197,-0.323235,0.449804,-0.015525,0.000801314,0.009813808,0.357386552,-0.517970545,0.076676032,0.181308659
40973,0.771353,1.101077,0.121333,-0.360302,0.330655,-0.093746,0.006103134,0.009696433,0.349794962,-0.474862666,0.138729122,0.05655309
40983,0.762308,1.092765,0.105208,-0.383949,0.356318,-0.208349,0.007928034,0.019921597,0.336359918,-0.499482189,0.255480092,0.055101027
40993,0.75033,1.077853,0.089571,-0.396091,0.369149,-0.299911,0.007658098,0.033762774,0.315897637,-0.509348946,0.34807418,0.050136699
41053,0.651574,0.992534,0.015295,-0.353272,0.315991,-0.51032,0.015034123,-0.00300577,0.187295791,-0.463838669,0.514690796,0.070887194
41063,0.642774,0.983244,0.013097,-0.333461,0.295827,-0.512139,0.00783903,-0.002917269,0.174746249,-0.436845374,0.515861652,0.063632405
41073,0.634219,0.973955,0.005522,-0.309175,0.274442,-0.5085,0.012873738,-0.001109348,0.162190006,-0.404781603,0.511427135,0.063827743
41083,0.62053,0.964421,0.005522,-0.286807,0.256111,-0.49516,0.002452746,0.010413471,0.146769978,-0.376595412,0.498281905,0.054088488
41093,0.610996,0.954153,0.007477,-0.27083,0.230448,-0.465448,0.018809758,0.011732364,0.132823247,-0.348992674,0.468181798,0.04590128
41103,0.599263,0.947308,0.01554,-0.24271,0.222505,-0.432705,0.006899427,-0.000205649,0.121027403,-0.321550361,0.435089291,0.054340685
41113,0.588263,0.947552,0.017006,-0.206283,0.193787,-0.386014,0.013097384,0.005689295,0.115344541,-0.275145433,0.388312426,0.051198987
41123,0.581174,0.945597,0.018227,-0.177524,0.170569,-0.327803,0.00803724,0.004381112,0.110029431,-0.238770069,0.329856609,0.04740077
41183,0.575552,0.938263,0.014562,-0.027338,0.026368,-0.008855,0.003892358,0.009317897,0.100775926,-0.036988414,0.009329433,0.008115887
41193,0.567485,0.929462,0.019449,-0.012639,0.014148,0.028134,-0.003987564,-0.00470178,0.0891644,-0.018409929,-0.027907614,0.00580274
41203,0.565041,0.921639,0.017006,0.000143,-0.018847,0.064516,-0.002771594,-0.011904625,0.081124221,0.009455538,-0.064674126,-0.015665068
41213,0.564063,0.916505,0.012608,-0.007527,-0.041454,0.100291,-0.006637792,-0.016472486,0.076100386,0.014637388,-0.100285556,-0.039521242
41223,0.573107,0.919683,-0.005228,-0.013917,-0.054286,0.114238,-0.005343771,-0.007812421,0.083607953,0.016044971,-0.113747753,-0.054726419
41233,0.585574,0.915527,-0.036746,-0.036925,-0.057952,0.125152,0.001920436,0.01498953,0.087294115,-0.001299729,-0.123746206,-0.071204637
41243,0.596574,0.902326,-0.060446,-0.074631,-0.052453,0.113631,0.012448608,0.030808788,0.082886105,-0.035550759,-0.110883882,-0.08760146
41253,0.605863,0.895481,-0.07364,-0.132148,-0.040232,0.096653,0.024116095,0.043884119,0.082530205,-0.090301546,-0.092711658,-0.108044849
41314,0.592174,0.859789,-0.076816,-0.517518,0.033701,0.017825,0.00056392,-0.0039726,0.04680073,-0.445045451,-0.018471328,-0.266217439
41324,0.593885,0.865656,-0.105891,-0.567367,0.04531,0.044505,-0.003693333,0.020865415,0.054904546,-0.491292137,-0.043348235,-0.287562116
41334,0.591196,0.853922,-0.118351,-0.622328,0.05142,0.073611,-0.000185304,0.031266708,0.044856359,-0.538848516,-0.069701857,-0.316446937
41344,0.583863,0.84781,-0.134233,-0.664508,0.069751,0.097866,-0.004016074,0.045310075,0.03712447,-0.583055561,-0.092162393,-0.32797278
41354,0.580685,0.841699,-0.149137,-0.731612,0.088692,0.119695,-0.004449881,0.058898301,0.031700203,-0.648305158,-0.111484274,-0.353158549
41364,0.571396,0.827031,-0.149625,-0.780182,0.113744,0.137886,-0.005164895,0.059514397,0.014540618,-0.701772392,-0.127706673,-0.363098768
41374,0.566018,0.808696,-0.149381,-0.82364,0.127186,0.133641,-0.002432692,0.060133557,-0.003476886,-0.744413405,-0.120319372,-0.379197807
41384,0.567241,0.786205,-0.141318,-0.860707,0.132075,0.12879,0.0116504,0.054074209,-0.021842712,-0.777732085,-0.114842333,-0.395968752
41444,0.522751,0.685241,-0.075594,-0.84473,0.050809,-0.036748,0.009634934,0.00966193,-0.134926533,-0.71105688,0.029083416,-0.459405062
41454,0.513951,0.689885,-0.071685,-0.786573,0.004372,-0.059183,0.000672236,0.002518491,-0.136739386,-0.638242369,0.060540629,-0.459565379
41464,0.509796,0.681574,-0.091475,-0.722026,-0.047565,-0.082831,-8.62E-05,0.019703333,-0.144187797,-0.555783803,0.093378955,-0.461334676
41474,0.506863,0.650526,-0.113953,-0.665147,-0.103778,-0.118607,0.013677473,0.041359836,-0.168626586,-0.4771746,0.138327623,-0.469497492
41484,0.495862,0.612145,-0.135454,-0.617854,-0.14105,-0.159234,0.026289542,0.062542076,-0.203541741,-0.41768734,0.186048729,-0.466816121
41494,0.491218,0.592099,-0.152557,-0.574397,-0.181989,-0.231997,0.033807484,0.077280892,-0.220234198,-0.360063406,0.265805106,-0.465377811
41504,0.493907,0.579876,-0.166728,-0.552028,-0.214983,-0.303549,0.042878295,0.088069176,-0.226434361,-0.323335425,0.343808064,-0.469409008
41514,0.500262,0.585254,-0.159643,-0.537329,-0.245534,-0.375706,0.044982427,0.080242511,-0.219098008,-0.295679015,0.418157169,-0.47737082
41576,0.515174,0.673262,-0.084634,-0.271469,-0.505217,-0.444226,0.00333476,0.005936321,-0.148059554,0.054017765,0.499850171,-0.522980174
41586,0.559663,0.730711,-0.036746,-0.190944,-0.569374,-0.391472,0.011472376,-0.043176541,-0.079937133,0.16063938,0.451020611,-0.533546706
41596,0.582885,0.78376,0.030199,-0.10339,-0.653083,-0.337505,0.00605469,-0.111479886,-0.029184767,0.284167959,0.402377265,-0.55538962
41606,0.593641,0.826297,0.089082,-0.013278,-0.749624,-0.274443,-0.004049233,-0.17155547,0.006808967,0.417090918,0.345049363,-0.586862428
41616,0.577507,0.835587,0.108873,0.090893,-0.822946,-0.215626,-0.019127397,-0.190294713,0.003491587,0.547001497,0.288600002,-0.591181554
41626,0.558929,0.816763,0.084196,0.181643,-0.898712,-0.13316,-0.020934255,-0.163081591,-0.020429409,0.667205277,0.208016623,-0.608255889
41636,0.530818,0.801117,0.037529,0.259612,-0.946983,-0.065853,-0.031968822,-0.114482619,-0.045622534,0.75881873,0.139362837,-0.610969676
41646,0.524218,0.794272,-0.007671,0.283897,-0.946983,0.000241,-0.034834391,-0.068749094,-0.051426601,0.7807257,0.073035288,-0.602086037
41707,0.407129,0.502625,-0.092453,0.003977,-0.631698,0.039655,-0.006406825,0.000421327,-0.346630085,0.399827354,0.073057094,-0.485212785
41717,0.371929,0.427574,-0.071685,-0.072713,-0.565097,0.009943,0.008745132,-0.008705313,-0.42891578,0.301464109,0.091035506,-0.474923774
41727,0.330862,0.38577,-0.071929,-0.145569,-0.508272,-0.010067,0.00103043,0.002564564,-0.486722007,0.210255822,0.097347421,-0.475339955
41737,0.303728,0.355945,-0.064111,-0.220982,-0.439838,-0.03129,0.002101175,-0.003780039,-0.527729889,0.105282677,0.110756672,-0.468954254
41747,0.258017,0.30583,-0.062401,-0.293198,-0.370793,-0.046449,-0.001183368,0.000755757,-0.595034971,0.005198542,0.118720522,-0.459878721
41757,0.204239,0.233223,-0.067531,-0.358385,-0.304192,-0.051907,0.0025057,0.017559235,-0.683215582,-0.086253704,0.11792458,-0.449801078
41767,0.16195,0.159395,-0.084634,-0.399926,-0.250423,-0.049481,0.014289578,0.04741561,-0.762628876,-0.149100852,0.110888933,-0.436547173
41777,0.163172,0.101456,-0.095873,-0.436354,-0.188099,-0.031897,0.05136599,0.068917814,-0.80322113,-0.215313708,0.083839828,-0.416430494
41839,0.377062,0.240557,-0.139852,-0.631914,0.38137,0.007517,-0.002600062,0.007208597,-0.531445542,-0.636292151,-0.201161483,-0.31540647
41848.875,0.413484,0.265004,-0.134233,-0.672816,0.476688,-0.007036,0.002493933,-0.000611982,-0.490875219,-0.732724509,-0.239042673,-0.293147948
41858.75,0.469462,0.324653,-0.114686,-0.708605,0.576284,-0.048875,0.001098482,-0.03457818,-0.418837233,-0.841050366,-0.254060175,-0.25436346
41868.625,0.544263,0.459599,-0.081458,-0.740559,0.672214,-0.098597,-0.035964493,-0.111434176,-0.292626096,-0.947994014,-0.258757356,-0.210648149
41878.5,0.643996,0.645393,-0.061423,-0.75398,0.728428,-0.13316,-0.098442061,-0.192670687,-0.112180804,-1.009966889,-0.256643406,-0.175857393
41888.375,0.661108,0.714577,-0.062645,-0.741198,0.791974,-0.1465,-0.13485783,-0.203793327,-0.055600658,-1.053037512,-0.273733118,-0.119338676
41898.25,0.608307,0.696731,-0.067043,-0.716913,0.829246,-0.123458,-0.153079774,-0.179724734,-0.103210248,-1.05603821,-0.309820737,-0.075162931
41908.125,0.552085,0.629747,-0.06069,-0.673455,0.87385,-0.060396,-0.137055,-0.162150544,-0.187605062,-1.036602761,-0.381497069,-0.026792515
41969,0.673574,0.631947,-0.122261,-0.268913,1.120701,0.273712,-0.012151676,0.001842448,-0.068412302,-0.947713548,-0.486029873,0.518475829
41978.875,0.658419,0.558363,-0.140585,-0.199253,1.129866,0.254308,0.013815941,0.038134377,-0.12627015,-0.915484579,-0.471654726,0.566040016
41988.75,0.678708,0.542228,-0.122016,-0.107863,1.144531,0.208831,0.034837555,0.037304359,-0.124249815,-0.873937329,-0.424812721,0.64881717
41998.625,0.753508,0.647348,-0.078526,-0.005609,1.131699,0.133641,0.020849666,-0.008996909,-0.003764878,-0.801710454,-0.341635179,0.734288606
42008.5,0.794819,0.748557,-0.093186,0.093449,1.10237,0.054207,-0.017164482,-0.008017622,0.09562747,-0.717980893,-0.257374514,0.803213875
42018.375,0.785286,0.773737,-0.124215,0.243635,1.07182,-0.004004,-0.038830386,0.015744289,0.10861027,-0.596336359,-0.193007639,0.902941391
42028.25,0.753753,0.760292,-0.144739,0.40788,1.007663,-0.053119,-0.05030813,0.03084611,0.078728185,-0.442796128,-0.131843845,0.985454836
42038.125,0.698508,0.686952,-0.165751,0.567652,0.925786,-0.079193,-0.040341436,0.063112115,-0.009202695,-0.281177636,-0.079285014,1.048919952
42098,0.619063,0.922372,-0.235873,1.225272,0.466301,0.171236,-0.014192618,-0.017141392,0.13540738,0.794108862,-0.28884639,1.016862204
42108,0.599507,0.834365,-0.233918,1.272564,0.407643,0.210043,0.007177013,-0.013954213,0.05358673,0.864311261,-0.319729857,0.990176184
42118,0.558196,0.778138,-0.231963,1.305158,0.349597,0.239149,-0.00107892,-0.018069393,-0.014829615,0.925534664,-0.340509128,0.95408953
42128,0.532774,0.740979,-0.234407,1.3173,0.295827,0.257946,-0.002474154,-0.021542328,-0.057994447,0.970543889,-0.350385096,0.908077026
42138,0.524218,0.730467,-0.255419,1.312827,0.24939,0.280988,-0.000667135,-0.010494404,-0.065379843,1.005242271,-0.360137649,0.851148172
42148,0.524463,0.740979,-0.261283,1.30388,0.217617,0.291903,-0.004665689,-0.010474353,-0.055410861,1.02155754,-0.353253838,0.8150457
42158,0.516885,0.746602,-0.25151,1.28982,0.188288,0.305849,-0.010550385,-0.023309514,-0.058093802,1.031692955,-0.35003151,0.778279643
42168,0.500996,0.744401,-0.236361,1.2617,0.160181,0.333136,-0.019619705,-0.036771576,-0.073037605,1.028390349,-0.365872351,0.732854113
42227,0.521774,0.86419,-0.179922,1.130687,0.048365,0.385283,-0.013633473,-0.015450542,0.025192566,0.983887889,-0.390208705,0.555821054
42237,0.526907,0.847077,-0.183587,1.077643,0.0392,0.334348,-0.006187796,-0.008529152,0.014279834,0.936501688,-0.333815704,0.534949834
42247,0.548418,0.868346,-0.164773,1.011817,0.031868,0.279169,0.001859244,-0.031154328,0.039693787,0.878243964,-0.273982731,0.506305781
42257,0.564307,0.915283,-0.137898,0.957494,0.025757,0.216713,-0.005297647,-0.066802214,0.081993816,0.82838661,-0.207843474,0.484767389
42267,0.580441,0.963687,-0.125193,0.89039,0.014759,0.168204,-0.012426364,-0.088484295,0.128403204,0.772221005,-0.154917777,0.448307894
42277,0.589485,1.009158,-0.128369,0.829677,9.50E-05,0.112418,-0.025140045,-0.093321126,0.171763705,0.722076395,-0.094560753,0.413117035
42287,0.584596,1.001579,-0.131301,0.753626,-0.01457,0.051175,-0.022756706,-0.085786061,0.163733566,0.6575018,-0.029714589,0.370933606
42297,0.570418,0.959531,-0.135699,0.6878,-0.027401,-0.024014,-0.01430822,-0.07230275,0.122077645,0.597514695,0.044938792,0.339636601
42357,0.532529,0.870546,-0.081947,0.16311,0.020258,-0.381164,0.000248109,-0.00918715,0.023752079,0.109867191,0.376500004,0.135934547
42366.875,0.540107,0.877146,-0.088788,0.116456,0.018425,-0.397535,-0.000573367,0.003460519,0.033910867,0.069421134,0.393908788,0.109325796
42376.75,0.537663,0.864923,-0.083901,0.072998,0.018425,-0.406025,0.000623205,0.006764098,0.021844672,0.031450641,0.402950016,0.084655958
42386.625,0.542552,0.854411,-0.069486,0.021871,0.011093,-0.395716,0.010822225,0.001753674,0.014440209,-0.007831383,0.393535669,0.047548862
42396.5,0.557463,0.851722,-0.021842,-0.007527,0.014148,-0.391472,0.028968116,-0.036537671,0.017102886,-0.034233488,0.389061997,0.031080208
42406.375,0.572618,0.889859,0.01725,-0.022226,0.005594,-0.370249,0.027475146,-0.068882337,0.055716968,-0.041151493,0.36848165,0.011723397
42416.25,0.574329,0.937774,0.033131,-0.030534,0.001317,-0.343569,0.008568217,-0.078533264,0.097328871,-0.044603523,0.342029357,-0.000402289
42426.125,0.570907,0.953909,0.045836,-0.017752,-0.013959,-0.290815,-0.002027797,-0.092296143,0.108808113,-0.02305402,0.290638078,-0.009020613
42487,0.546218,0.865167,-0.000341,0.114539,-0.099501,0.025102,0.009248375,-0.007013176,0.023099917,0.149755525,-0.024932229,-0.024523633
42496.875,0.554529,0.893526,-0.004739,0.129238,-0.107444,0.060877,-0.005838421,0.00322999,0.051603092,0.166582106,-0.060873032,-0.022306029
42506.75,0.563818,0.898904,0.000392,0.139463,-0.104389,0.086345,-0.005947794,0.004922081,0.061065356,0.173650966,-0.086491639,-0.012922421
42516.625,0.565529,0.898415,0.000392,0.13499,-0.119054,0.10878,-0.009301189,-0.005743634,0.061533426,0.177823908,-0.108780229,-0.027834562
42526.5,0.566018,0.885214,-0.002296,0.141381,-0.12883,0.125759,-0.015108857,-0.002385432,0.050595786,0.188821751,-0.125832807,-0.030224713
42536.375,0.570174,0.869812,-0.003029,0.148411,-0.139828,0.112418,-0.010346612,0.004143794,0.03997897,0.200945482,-0.112768865,-0.033460385
42546.25,0.58973,0.862234,0.017006,0.135629,-0.147161,0.096653,0.006376072,-0.009210528,0.044697401,0.19453727,-0.09741821,-0.045368834
42556.125,0.601707,0.87079,0.045836,0.123486,-0.154493,0.072398,0.011453795,-0.03794773,0.058704991,0.188627226,-0.073247192,-0.058420615
42616,0.556241,0.895481,0.042904,0.040405,-0.19482,0.021464,-0.002646448,0.007663797,0.055019093,0.136697747,-0.032009901,-0.142608527
42626,0.564552,0.893526,0.071735,0.03018,-0.199708,0.023283,0.001665402,-0.01343243,0.059278235,0.130924736,-0.035455713,-0.151452374
42636,0.570907,0.898415,0.077843,0.013563,-0.208873,0.037229,-0.003238452,-0.01234679,0.067230489,0.122392896,-0.051319854,-0.166084722
42646,0.572129,0.898415,0.065138,-0.007527,-0.214983,0.034804,-0.006231565,-0.009404314,0.06705051,0.108625928,-0.048001557,-0.182707205
42656,0.582641,0.901593,0.052433,-0.030534,-0.212539,0.04208,-0.001012579,-0.006431296,0.074731271,0.088019681,-0.053527326,-0.193036886
42666,0.585818,0.901348,0.029466,-0.063766,-0.21315,0.043899,0.000877391,0.006702583,0.075375979,0.060602707,-0.053375707,-0.211906803
42676,0.57873,0.887169,-0.001074,-0.08933,-0.209484,0.049963,0.002287147,0.027367617,0.058888183,0.037130421,-0.05706147,-0.222991069
42686,0.571396,0.87299,-0.032104,-0.133427,-0.201541,0.05542,0.005097573,0.057904665,0.042236374,-0.004364839,-0.061292905,-0.240243717
42746,0.531552,0.871768,-0.052627,-0.364776,-0.090947,0.140918,0.00487286,0.010364822,0.022333312,-0.261656223,-0.13724189,-0.271829826
42756,0.523485,0.87788,-0.041633,-0.364776,-0.085448,0.173661,-0.000139085,0.009294026,0.022915807,-0.265236166,-0.172204891,-0.265549026
42766,0.509307,0.862478,-0.032104,-0.356468,-0.076894,0.21065,-0.001909433,-0.005209068,0.002128638,-0.262613559,-0.20741697,-0.255671399
42776,0.506129,0.856611,-0.038701,-0.339213,-0.072005,0.233085,-0.001799195,-0.004428393,-0.004297289,-0.250261625,-0.227974908,-0.244898666
42786,0.504418,0.857345,-0.04994,-0.321318,-0.062229,0.260978,-0.00348046,0.000672451,-0.004028411,-0.239910373,-0.254450985,-0.230054192
42796,0.507107,0.858567,-0.048963,-0.302146,-0.060396,0.282807,-0.009414137,0.009664983,-0.001746455,-0.222841427,-0.278256124,-0.218711933
42806,0.512485,0.857833,-0.043832,-0.281695,-0.059785,0.29069,0.000921627,-0.000225731,0.000219313,-0.207142646,-0.284892359,-0.208219268
42816,0.508329,0.859789,-0.046519,-0.24335,-0.062229,0.288871,-0.003689347,0.002410315,-0.000109959,-0.172974323,-0.283340933,-0.190619844
42877,0.520551,0.905749,-0.025018,-0.040759,-0.137995,0.260978,0.00772677,-0.005930316,0.04493331,0.035521465,-0.256284675,-0.147884494
42887,0.525685,0.917239,-0.025996,-0.017752,-0.142272,0.252489,0.003890487,0.003023101,0.057508212,0.057552079,-0.248936973,-0.137932201
42897,0.527396,0.933373,-0.029172,0.002699,-0.154493,0.235511,0.004977534,-0.001493231,0.072453122,0.07989277,-0.230854538,-0.14022885
42907,0.524218,0.932884,-0.026484,0.034014,-0.166713,0.220958,0.013443124,-0.005091599,0.070313893,0.111366398,-0.216163,-0.136541924
42917,0.520307,0.939241,-0.030638,0.053187,-0.178322,0.207618,0.011773573,0.005264634,0.074088164,0.132752576,-0.203626957,-0.136549048
42927,0.517618,0.963687,-0.024286,0.065968,-0.18871,0.200342,0.004789952,0.003550353,0.094155057,0.147722498,-0.197055121,-0.139454297
42937,0.517863,0.976155,-0.020132,0.083224,-0.20093,0.198522,0.000910561,0.006422668,0.105180478,0.168171261,-0.196270876,-0.141089523
42947,0.52104,0.989845,-0.010848,0.087697,-0.211317,0.199735,-0.002658219,-0.003040188,0.118649711,0.176987936,-0.197368773,-0.148190913
43008,0.538885,1.082742,0.027023,0.090254,-0.252256,0.202767,-0.004222534,-0.012449546,0.209663054,0.191151505,-0.207462791,-0.182520198
43017.875,0.549885,1.102299,0.019938,0.083224,-0.246756,0.208831,-0.004715208,0.00355824,0.231989946,0.182157591,-0.215001342,-0.178936244
43027.75,0.555996,1.112567,0.038262,0.053187,-0.243701,0.220958,-0.005194639,-0.005586068,0.244324184,0.153489307,-0.228567125,-0.187722066
43037.625,0.570907,1.142392,0.050723,0.031458,-0.240646,0.221564,-0.002501052,-0.008530531,0.278079842,0.131771547,-0.230589812,-0.193533737
43047.5,0.58973,1.199352,0.059519,0.008451,-0.242479,0.227022,-0.005368253,-0.007277479,0.337791996,0.110497163,-0.237515687,-0.204409267
43057.375,0.604885,1.254357,0.068803,-0.003692,-0.2492,0.243394,-0.013284782,-0.004879343,0.394213365,0.10120974,-0.255800129,-0.213723636
43067.25,0.616619,1.271714,0.077843,0.009729,-0.267531,0.247032,-0.015629509,-0.002804691,0.415373758,0.121416756,-0.262270283,-0.221730847
43077.125,0.626396,1.262424,0.085173,0.018676,-0.292583,0.253702,-0.002931016,-0.01065953,0.411813914,0.140400203,-0.270389989,-0.239781873
43137,0.618574,1.204486,0.173375,0.160553,-0.442893,0.032378,0.005798467,0.005668978,0.365069027,0.338029355,-0.097560729,-0.314956932
43147,0.608063,1.215732,0.200007,0.175252,-0.460613,0.017825,-0.004049414,-0.013874901,0.373877286,0.358200385,-0.088223699,-0.327268076
43157,0.600485,1.224288,0.212467,0.195703,-0.482609,0.0154,-0.007154897,-0.021212362,0.379892899,0.383978207,-0.091451234,-0.340067169
43167,0.594863,1.227221,0.208802,0.22574,-0.507661,0.025708,-0.002165298,-0.015776574,0.379593439,0.417883321,-0.107496701,-0.3509375
43177,0.586063,1.229911,0.204649,0.237883,-0.524158,0.046931,-0.000723326,-0.009751018,0.377656167,0.431126553,-0.13306976,-0.360492419
43187,0.583618,1.227221,0.200007,0.250025,-0.535157,0.085132,0.011959245,-0.01557475,0.373425847,0.439611043,-0.171571193,-0.365319626
43197,0.581907,1.229177,0.193898,0.260251,-0.533935,0.117876,-0.007113265,-0.02149437,0.373526731,0.449515342,-0.202267616,-0.351760839
43207,0.574329,1.232111,0.183881,0.258973,-0.528436,0.156077,-0.014345808,-0.010979556,0.371654908,0.442820228,-0.239179085,-0.342600732
43267,0.498307,1.147525,0.121822,0.159914,-0.374459,0.265829,-0.011088056,-0.0126247,0.256853915,0.28481891,-0.302001368,-0.253239905
43277,0.495618,1.121612,0.108873,0.147132,-0.348796,0.238543,-0.013022625,-0.014162664,0.23090773,0.265441548,-0.270566483,-0.237789404
43287,0.49464,1.091787,0.092747,0.124125,-0.324356,0.193672,-0.011524708,-0.011374156,0.202084605,0.23815254,-0.221907227,-0.228392698
43297,0.494885,1.064407,0.079065,0.096645,-0.294416,0.122727,-0.004954628,-0.011347523,0.176423132,0.205083718,-0.146584647,-0.218028813
43307,0.492929,1.043872,0.061229,0.05766,-0.262032,0.041474,-0.001096738,-0.005947608,0.156010452,0.161058611,-0.060581738,-0.209989319
43317,0.486329,1.03116,0.060252,0.026984,-0.232703,-0.043418,0.001300455,0.003082216,0.141676817,0.12511852,0.025184107,-0.201184149
43327,0.482662,1.026026,0.072957,0.003977,-0.203985,-0.108905,0.003726015,-0.001134615,0.136221595,0.09536978,0.091621636,-0.189726321
43337,0.477773,1.026026,0.089571,-0.005609,-0.186266,-0.19986,-0.001679716,-0.017556793,0.135212885,0.084602644,0.183947689,-0.183510609
43397,0.450151,0.94853,0.127442,0.003338,-0.140439,-0.591573,0.007854023,-0.010123566,0.057554904,0.095469944,0.569265956,-0.191088016
43407,0.454551,0.965154,0.11156,-0.008166,-0.126997,-0.665549,0.017510315,-0.002013682,0.072508192,0.082865964,0.645965624,-0.187115039
43417,0.444529,0.976155,0.105208,-0.021586,-0.110499,-0.704357,0.009794773,0.014566999,0.077610878,0.066510143,0.684956832,-0.187630774
43427,0.439884,0.972488,0.114492,-0.041398,-0.095835,-0.742558,0.001810988,0.007495997,0.073442962,0.046995323,0.724355764,-0.188124138
43437,0.435484,0.962709,0.119623,-0.06121,-0.087281,-0.768631,0.003810974,0.009609707,0.063323904,0.028126556,0.74992326,-0.197439235
43447,0.43304,0.953664,0.123532,-0.079104,-0.083615,-0.782578,0.002240029,-0.000194536,0.054634423,0.013282623,0.765273534,-0.199642751
43457,0.438662,0.956109,0.124265,-0.100194,-0.077505,-0.777121,0.001406694,-0.000672753,0.059248851,-0.006272073,0.760965362,-0.202126917
43467,0.442573,0.958309,0.123532,-0.132148,-0.069561,-0.772876,0.004122342,0.000293205,0.062765296,-0.038899352,0.758292524,-0.207649767
43528,0.454551,0.901348,0.097145,-0.375001,-0.024346,-0.695261,0.004765142,-0.005190297,0.014116529,-0.290374982,0.69070573,-0.25142454
43538,0.453818,0.895726,0.08444,-0.428685,-0.00846,-0.653422,0.006978967,0.003540788,0.007643148,-0.345813239,0.652737366,-0.255244677
43548,0.457484,0.88937,0.074667,-0.482368,0.008038,-0.611583,0.014529422,0.00915333,0.002771599,-0.401958288,0.615227437,-0.258267299
43558,0.458218,0.89377,0.065871,-0.537969,0.015981,-0.55701,0.010356541,0.017254497,0.006341175,-0.455811664,0.56397661,-0.272198985
43568,0.465307,0.892792,0.069536,-0.583344,0.023313,-0.504862,0.011652758,0.014110461,0.009003728,-0.499754584,0.514747897,-0.284603787
43578,0.47264,0.891325,0.071002,-0.635749,0.041033,-0.460598,0.011756841,0.015155389,0.011198398,-0.553703588,0.474330416,-0.293996614
43588,0.480218,0.881791,0.073445,-0.692628,0.047143,-0.406631,0.019756444,0.010912218,0.006503587,-0.608294883,0.424561011,-0.311496488
43598,0.47704,0.880569,0.062206,-0.741198,0.050809,-0.358122,0.018265661,0.022022954,0.003005417,-0.656418808,0.37781084,-0.326467019
43658,0.472151,0.77716,0.04266,-0.945706,0.03309,-0.210168,0.008302035,0.000924325,-0.089695474,-0.822970933,0.21513286,-0.464824773
43668,0.47264,0.783516,0.040217,-0.952097,0.023313,-0.19319,0.005317662,0.003349865,-0.084104919,-0.822921614,0.201862134,-0.475821675
43678,0.47044,0.786938,0.035575,-0.955292,0.004372,-0.175605,0.003660236,0.007574797,-0.082514297,-0.81668238,0.187658226,-0.491175442
43688,0.46604,0.786205,0.017494,-0.95657,-0.013959,-0.157414,2.68E-05,0.02518756,-0.086225843,-0.807743644,0.172806624,-0.507630045
43698,0.467262,0.764448,-0.000341,-0.958488,-0.028623,-0.147713,0.010720315,0.041414091,-0.105078447,-0.800074533,0.166506192,-0.522966617
43708,0.480218,0.762981,-0.006205,-0.968713,-0.035955,-0.142255,0.018621534,0.047394006,-0.099891738,-0.801799924,0.164828926,-0.538407309
43718,0.492685,0.763225,0.005034,-0.967435,-0.055508,-0.148925,0.022063893,0.037535605,-0.092596829,-0.785186154,0.173462204,-0.560877741
43728,0.504907,0.762492,0.016517,-0.958488,-0.082393,-0.160446,0.032104995,0.025666306,-0.086266751,-0.762829375,0.182652349,-0.579620769
43789,0.431329,0.64197,-0.03528,-0.962961,-0.21315,-0.088895,-0.006649339,0.009089288,-0.225863038,-0.676966323,0.096983073,-0.716198305
43798.875,0.441107,0.623391,-0.024041,-0.952097,-0.236369,-0.075555,0.007539648,0.008696492,-0.23603847,-0.649525171,0.079713707,-0.734731473
43808.75,0.440862,0.628525,-0.015734,-0.934202,-0.265698,-0.047056,0.000206475,-0.001137835,-0.23211381,-0.612987983,0.058022294,-0.752610269
43818.625,0.438173,0.62608,-0.020132,-0.918225,-0.298693,-0.015525,0.008516831,0.008426177,-0.235648311,-0.589620782,0.026527938,-0.764355471
43828.5,0.426195,0.629258,-0.01549,-0.89394,-0.321912,0.022676,0.004655852,0.00494203,-0.239867348,-0.56435763,-0.008411682,-0.764656765
43838.375,0.395151,0.613857,-0.018177,-0.874128,-0.334743,0.081494,-0.004754498,0.010604909,-0.269821896,-0.549730127,-0.065756185,-0.759122402
43848.25,0.368995,0.5987,-0.013779,-0.860707,-0.341464,0.141524,-0.012398004,0.013238073,-0.29682157,-0.543008724,-0.128907739,-0.752308159
43858.125,0.355795,0.614101,0.007721,-0.840896,-0.346352,0.227628,-0.032286019,-0.00784228,-0.291010687,-0.525566708,-0.215417928,-0.745825079
43919,0.447707,0.626569,-0.02282,-0.633193,-0.334132,0.737582,-0.012847919,-0.002099326,-0.229687371,-0.29914587,-0.721173445,-0.66859957
43929,0.463596,0.573031,-0.047252,-0.612103,-0.31519,0.729093,0.018101458,0.023575735,-0.262006063,-0.286265632,-0.711400068,-0.646183684
43939,0.489996,0.507514,-0.04823,-0.59996,-0.29686,0.679977,0.066805816,0.025746056,-0.296532306,-0.281359651,-0.661204603,-0.627767315
43949,0.496107,0.444686,-0.05165,-0.591013,-0.286473,0.587809,0.099935484,0.030124535,-0.339968995,-0.274358025,-0.567826565,-0.615778558
43959,0.499529,0.411683,-0.053849,-0.581426,-0.265698,0.49928,0.113679446,0.033114453,-0.361335577,-0.273418664,-0.479175453,-0.594613537
43969,0.498551,0.403371,-0.038701,-0.571201,-0.24309,0.382251,0.109008199,0.019365093,-0.36714833,-0.273113393,-0.363069034,-0.570148321
43979,0.491707,0.412906,-0.019888,-0.548833,-0.21865,0.267042,0.088688182,0.00114188,-0.363764372,-0.26504959,-0.24839802,-0.537014015
43989,0.484373,0.452754,-0.025263,-0.511127,-0.191765,0.159109,0.056633111,0.006337725,-0.338944684,-0.253401004,-0.141907618,-0.488866504
44050,0.472396,0.560807,0.061473,-0.063766,-0.070172,-0.121032,0.006099716,0.00420137,-0.264210258,0.003523684,0.112065107,-0.105204338
44059.875,0.479729,0.581098,0.071491,0.062773,-0.078727,-0.136798,0.005243502,-0.010118407,-0.243167201,0.107372589,0.127511758,-0.032618423
44069.75,0.484373,0.596011,0.063672,0.181004,-0.092169,-0.145893,0.000902058,-0.009621921,-0.229411236,0.208290111,0.134691814,0.03186981
44079.625,0.477773,0.588432,0.048035,0.277506,-0.108666,-0.168329,-0.000208807,-0.003654516,-0.240517795,0.294843393,0.154047289,0.080556427
44089.5,0.466529,0.558852,0.023603,0.37273,-0.113555,-0.174999,0.010090773,0.009025044,-0.271756433,0.371838749,0.157802321,0.138857527
44099.375,0.461396,0.547606,0.00088,0.471149,-0.117221,-0.199254,0.014518815,0.021236684,-0.284390063,0.451649841,0.177994277,0.199385953
44109.25,0.458462,0.550051,-0.022575,0.549757,-0.115388,-0.211381,0.01501639,0.034959461,-0.284594183,0.512777835,0.185965979,0.250408913
44119.125,0.45944,0.577676,0.001369,0.598967,-0.106222,-0.21987,-0.002888572,0.012450389,-0.262007322,0.545888075,0.193204098,0.288211352
44180,0.432795,0.576942,-0.036746,0.821369,-0.072005,-0.154989,0.00299648,0.001294028,-0.277841293,0.695779716,0.163223879,0.439433609
44189.875,0.44184,0.595033,-0.026973,0.816256,-0.04451,-0.165297,0.00581942,-0.008789262,-0.258445361,0.677679495,0.175359776,0.453406603
44199.75,0.452107,0.649304,-0.011825,0.800279,-0.01457,-0.167116,-0.010270898,-0.026740828,-0.209230949,0.650170711,0.17860303,0.462564076
44209.625,0.454796,0.678396,-0.007427,0.795806,0.011704,-0.162872,-0.015351517,-0.033823044,-0.184073516,0.636044721,0.175262701,0.474026962
44219.5,0.445262,0.666417,-0.025263,0.795806,0.034312,-0.156202,-0.021111658,-0.026150602,-0.198826779,0.620273394,0.163441071,0.49742487
44229.375,0.444529,0.622657,-0.04432,0.788137,0.053864,-0.161053,-0.005460336,-0.008814544,-0.233733387,0.596425664,0.165966477,0.516459956
44239.25,0.44404,0.567653,-0.047008,0.767047,0.082582,-0.190765,0.021337741,-0.000573364,-0.278088943,0.556187104,0.19562938,0.532876368
44249.125,0.469218,0.55274,-0.010848,0.726784,0.106412,-0.238061,0.053004531,-0.034645247,-0.277646247,0.506318325,0.239639887,0.531437686
44309,0.450151,0.641481,-0.026973,0.728062,0.186455,-0.279294,-0.00131992,0.002903285,-0.215875541,0.479897026,0.276161119,0.579895475
44319,0.455773,0.643926,-0.020376,0.696108,0.208452,-0.250795,0.006630267,-0.000449606,-0.21086076,0.443815808,0.251573722,0.575026005
44329,0.491462,0.756869,0.039728,0.670545,0.246946,-0.200466,-0.020218863,-0.061546204,-0.099018781,0.4051607,0.203978696,0.587398536
44339,0.507107,0.872013,0.087861,0.675657,0.269553,-0.121639,-0.064941492,-0.110806543,0.004384513,0.401914398,0.129204978,0.604762878
44349,0.522263,0.902326,0.109117,0.691634,0.281163,-0.028865,-0.064051177,-0.129466336,0.038264555,0.414892671,0.041492818,0.619988571
44359,0.522507,0.86859,0.085662,0.722311,0.286662,0.052995,-0.045137735,-0.100921287,0.011225796,0.442253838,-0.03392401,0.640294821
44369,0.523974,0.809918,0.05341,0.747874,0.298271,0.137279,-0.018307684,-0.062858625,-0.036110914,0.459088272,-0.11203266,0.666193121
44379,0.542063,0.767626,0.039484,0.744679,0.312325,0.193672,0.019395964,-0.04613482,-0.060778869,0.452387148,-0.169090426,0.6755419
44439,0.561129,0.927017,0.124754,0.91851,0.241447,0.433792,-0.010987239,-0.014985684,0.090616589,0.630267552,-0.403194039,0.728237704
44448.875,0.555018,0.867612,0.082485,0.926818,0.228004,0.450164,0.00654785,0.00611657,0.033208136,0.638817636,-0.426303468,0.723741968
44458.75,0.557463,0.819208,0.041194,0.909563,0.229837,0.444101,0.027071119,0.029094044,-0.00904875,0.619826873,-0.425376487,0.715699021
44468.625,0.579952,0.86639,0.045836,0.87697,0.23717,0.418027,0.021075515,0.014588409,0.043273643,0.592995571,-0.404123378,0.696500618
44478.5,0.601218,0.93973,0.076133,0.833512,0.24328,0.394985,0.004141089,-0.009807785,0.118140621,0.560095821,-0.376495936,0.674154317
44488.375,0.593152,0.982267,0.089815,0.800279,0.244502,0.374369,-0.016105224,-0.023891559,0.15061475,0.539835491,-0.354324409,0.650700937
44498.25,0.581418,0.975666,0.074667,0.769603,0.248168,0.351933,-0.02122795,-0.02395355,0.137770538,0.514995418,-0.336846734,0.631701645
44508.125,0.570418,0.935574,0.042416,0.718476,0.256111,0.334955,-0.008697643,0.006213259,0.096521896,0.467769387,-0.319636775,0.610753298
44567,0.538396,0.942174,0.090304,0.266003,0.392368,0.086345,0.003301714,-0.00896511,0.08886438,0.035698231,-0.052291583,0.477657753
44577,0.530329,0.94853,0.068314,0.21168,0.41131,0.080887,-0.005937315,0.004873029,0.088836909,-0.020431998,-0.049000479,0.466592469
44587,0.524707,0.932884,0.038751,0.14905,0.436361,0.076643,-0.004038854,0.025569023,0.070710767,-0.08768433,-0.046464893,0.456785996
44597,0.515418,0.892059,0.003568,0.076194,0.468134,0.060271,0.00467985,0.051827306,0.028945934,-0.167860982,-0.031343156,0.446573464
44607,0.519085,0.861012,0.003323,0.008451,0.491353,0.038442,0.017007836,0.045811404,0.004198184,-0.240086445,-0.011134466,0.430362057
44617,0.519818,0.859056,0.025313,-0.048428,0.516405,-0.002791,0.014042452,0.019356765,0.004119932,-0.302557847,0.028168855,0.42034801
44627,0.52324,0.884236,0.036308,-0.104668,0.537179,-0.03796,0.015451457,0.008653062,0.027938738,-0.356489985,0.062310834,0.412298291
44637,0.531063,0.919439,0.044126,-0.157712,0.5439,-0.079193,0.004661201,0.002542994,0.062692286,-0.405171203,0.103448378,0.390008392
44696,0.53864,0.863456,0.110827,-0.24974,0.490742,-0.367823,0.016136203,0.007596813,0.023549632,-0.440909235,0.428164994,0.246506232
44706,0.544263,0.882525,0.114737,-0.258688,0.46569,-0.387227,0.006358616,0.00467776,0.043156199,-0.436471389,0.442825172,0.217094449
44716,0.550129,0.886436,0.112538,-0.251658,0.440638,-0.399355,0.006139373,0.004563895,0.049293562,-0.418328145,0.450321452,0.197965059
44726,0.554529,0.882525,0.105941,-0.233124,0.415587,-0.399961,0.011386027,0.006270067,0.047572111,-0.390442656,0.446432938,0.18783056
44736,0.550618,0.880324,0.100321,-0.218425,0.382592,-0.38177,0.006707177,0.007525468,0.043126651,-0.363057609,0.423170027,0.170149209
44746,0.545974,0.873479,0.101299,-0.191584,0.358762,-0.357515,0.003761739,0.001026474,0.035035968,-0.330214721,0.395127837,0.167522556
44756,0.552574,0.877635,0.094946,-0.163464,0.329433,-0.324165,0.004781638,0.002684104,0.041424934,-0.293835418,0.357523797,0.1617622
44766,0.555996,0.884725,0.094457,-0.139817,0.304381,-0.26656,0.004003078,0.003951122,0.049171276,-0.263754719,0.297612184,0.158465316
44826,0.543774,0.925062,0.075644,0.000782,0.178512,0.23066,-0.005230924,-0.008337663,0.075664912,-0.099218358,-0.216823536,0.167971584
44836,0.542307,0.917239,0.059519,0.01612,0.165069,0.31737,-0.008007784,-0.001122254,0.067193231,-0.083100574,-0.305771591,0.166821386
44846,0.546952,0.910883,0.039484,0.01612,0.157126,0.39074,-0.007290989,0.010344154,0.063138352,-0.082334685,-0.380873427,0.160569655
44856,0.551596,0.901837,0.026046,0.008451,0.158959,0.448345,-0.003796442,0.015087349,0.057357307,-0.092145451,-0.439569532,0.156972815
44866,0.551107,0.902082,0.02629,-0.004331,0.157737,0.495642,-0.002468807,0.008393955,0.057395608,-0.10307768,-0.487804271,0.148265625
44876,0.551841,0.899637,0.038018,-0.015835,0.163847,0.524141,-0.004552548,0.006959047,0.056054655,-0.116795543,-0.514540254,0.153060455
44886,0.545729,0.892548,0.046081,-0.025421,0.168125,0.54597,-0.006445429,0.008175184,0.047128051,-0.127163574,-0.534814038,0.157476517
44896,0.539374,0.875924,0.048035,-0.045872,0.168736,0.573257,-0.003175135,0.005217194,0.029775328,-0.145732873,-0.562021692,0.148637862
44955,0.533507,0.904038,0.005522,-0.190305,0.212118,0.467749,0.002476145,0.010816096,0.049676997,-0.27254512,-0.465733311,0.093865895
44965,0.519818,0.896215,0.014318,-0.209478,0.217617,0.416814,-0.006237491,0.013897736,0.036042968,-0.291519934,-0.413998022,0.092703115
44975,0.517374,0.885947,0.022625,-0.239515,0.218228,0.376794,-0.012249238,0.000884487,0.026128163,-0.318072263,-0.374887205,0.072486084
44985,0.523485,0.884725,0.024336,-0.259966,0.220672,0.316157,0.00114787,-0.002403554,0.028280126,-0.336181262,-0.314702051,0.06464116
44995,0.530085,0.907705,0.017494,-0.288725,0.223116,0.25734,0.001079094,0.001658262,0.051294726,-0.361776348,-0.256453211,0.052118858
45005,0.538152,0.937285,0.011386,-0.305341,0.220061,0.196703,-0.001652523,0.004136408,0.080842517,-0.374331922,-0.196321684,0.041054214
45015,0.539129,0.951464,0.003568,-0.304702,0.217617,0.12879,-0.00318023,0.007667133,0.093566483,-0.372400188,-0.128670978,0.03936002
45025,0.532529,0.94193,0.002102,-0.321318,0.206008,0.08877,-0.004189786,0.0090136,0.082000407,-0.381110249,-0.088847815,0.020632733
45085,0.489507,0.891325,0.013097,-0.318762,0.166291,-0.200466,0.012710671,0.007933,0.016869901,-0.358100921,0.20287399,-0.007375678
45094.875,0.484129,0.887658,0.014318,-0.302785,0.151627,-0.2132,0.009799958,0.00130164,0.011150278,-0.336995331,0.215444822,-0.01189197
45104.75,0.471662,0.881547,0.014318,-0.290003,0.147961,-0.216838,0.007599013,-0.003980858,-0.000139226,-0.323982745,0.219113305,-0.00612015
45114.625,0.457973,0.862723,0.011875,-0.272748,0.134519,-0.2132,0.016153317,-0.003406829,-0.023322611,-0.30256769,0.215311337,-0.005907103
45124.5,0.440129,0.839987,0.009432,-0.265079,0.13513,-0.194403,0.005364359,0.008169094,-0.051693536,-0.296128748,0.196467188,-0.005284725
45134.375,0.425707,0.818719,0.015051,-0.264439,0.137574,-0.175605,-0.005416735,0.009665884,-0.077161437,-0.296783021,0.177681093,-0.006401072
45144.25,0.42424,0.815052,0.018472,-0.269552,0.144295,-0.141043,0.002676431,0.002696265,-0.08097001,-0.304709788,0.143258603,0.001172011
45154.125,0.42644,0.828498,0.016273,-0.275304,0.158348,-0.102235,-0.00152505,0.005223007,-0.068069093,-0.316543493,0.104770277,0.011907249
45214,0.539863,1.050472,-0.039922,-0.297672,0.210896,0.275531,-0.012463932,-0.003916339,0.181679551,-0.356584977,-0.283629802,0.037474842
45224,0.558929,1.07223,-0.047252,-0.307897,0.21945,0.305849,-0.010005661,-0.003399823,0.210041272,-0.369084434,-0.314574791,0.036357356
45234,0.579707,1.098632,-0.057758,-0.322596,0.223727,0.333136,-0.010510223,-0.000128994,0.243494263,-0.383592162,-0.342264755,0.028520778
45244,0.604641,1.132613,-0.063866,-0.323235,0.229226,0.351327,-0.000433404,-1.07E-05,0.285488866,-0.386218008,-0.360895815,0.032341097
45254,0.619307,1.164149,-0.068264,-0.325792,0.220061,0.357997,0.008209362,0.004323806,0.320362806,-0.383756168,-0.367108894,0.026294228
45264,0.627374,1.182973,-0.067531,-0.312371,0.212729,0.36406,-0.014660192,0.007570704,0.34063845,-0.368660017,-0.372835677,0.021267394
45274,0.628841,1.128457,-0.061423,-0.297033,0.195009,0.353146,0.022947463,0.012747685,0.29303515,-0.346793664,-0.361046765,0.0186708
45284,0.624685,1.197641,-0.05336,-0.275304,0.175457,0.337987,-0.013094368,0.00172995,0.35175743,-0.318727359,-0.345073517,0.012239369
45344,0.61173,1.196174,-0.038456,-0.135983,0.072806,0.119695,0.000173609,0.013336296,0.344004021,-0.152463145,-0.121956832,0.000709592
45354,0.603663,1.183462,-0.027217,-0.112976,0.049587,0.084526,0.005875885,0.013818193,0.328723681,-0.121983578,-0.086206141,-0.007456532
45364,0.597552,1.183706,-0.015734,-0.077826,0.022091,0.02874,0.013002309,0.0103804,0.325970977,-0.079169005,-0.029791957,-0.014683123
45374,0.593396,1.197152,-0.007916,-0.034368,-0.004793,-0.020376,0.006535898,0.013764706,0.336084654,-0.029038063,0.019895433,-0.019500674
45384,0.593641,1.209131,0.00259,0.000782,-0.033511,-0.074949,0.005015912,-0.009072739,0.346962006,0.014361126,0.075290894,-0.029427719
45394,0.600974,1.230155,-0.002052,0.03018,-0.059785,-0.13316,0.009293776,-0.01730453,0.368966567,0.051374285,0.134395873,-0.038924238
45404,0.601218,1.245556,-0.017933,0.067247,-0.086059,-0.179244,-0.004723247,-0.013073069,0.38311287,0.095911923,0.181466902,-0.043902035
45414,0.595352,1.236511,-0.020621,0.09984,-0.115999,-0.22654,-0.006072354,-0.010162751,0.372475329,0.137734868,0.229552957,-0.055486134
45475,0.541329,1.172705,-0.033081,0.209763,-0.207651,-0.223508,0.0001236,0.007260343,0.292020018,0.275009693,0.228462495,-0.096176072
45484.875,0.544996,1.167572,-0.007427,0.218071,-0.217428,-0.196828,0.00624158,-0.011277291,0.28846189,0.287129044,0.201148151,-0.103283546
45494.75,0.545485,1.160727,0.026779,0.230853,-0.233314,-0.17985,0.009701711,-0.0388392,0.282168305,0.305775681,0.183550906,-0.113511456
45504.625,0.544752,1.145814,0.051456,0.253221,-0.248589,-0.174999,0.014396231,-0.057323753,0.268384374,0.332862331,0.177953941,-0.118646869
45514.5,0.550863,1.135302,0.070269,0.264724,-0.275474,-0.175605,0.022558062,-0.070425392,0.261677378,0.355026319,0.177688863,-0.138509269
45524.375,0.546707,1.109633,0.072712,0.277506,-0.285862,-0.181063,0.025775107,-0.067940773,0.237004717,0.371663929,0.182113459,-0.142165697
45534.25,0.546952,1.089098,0.061229,0.282619,-0.298693,-0.184701,0.028481081,-0.052814879,0.218786015,0.382755573,0.184699292,-0.150299067
45544.125,0.545974,1.078342,0.04266,0.28901,-0.308469,-0.201073,0.032150106,-0.034305837,0.208519108,0.392671371,0.201055689,-0.156512171
45605,0.527885,0.983978,-0.054582,0.106231,-0.241868,-0.315676,0.001799177,-0.011073779,0.117912611,0.199649226,0.329748592,-0.144369472
45614.875,0.527885,0.976399,-0.068997,0.056382,-0.21315,-0.339931,0.007493657,-0.006687927,0.112059928,0.141775656,0.353534856,-0.138122069
45624.75,0.522018,0.972488,-0.074617,0.005894,-0.196042,-0.353271,-0.000150847,0.006341333,0.106238294,0.089931269,0.365146579,-0.14781051
45634.625,0.520551,0.970043,-0.071685,-0.04715,-0.165491,-0.370855,0.009893621,-0.00461543,0.103166496,0.02761501,0.382265021,-0.14231897
45644.5,0.512974,0.963198,-0.072907,-0.093164,-0.144716,-0.382376,-0.002457354,-0.001249772,0.093709533,-0.021268948,0.392788643,-0.145252783
45654.375,0.514196,0.943641,-0.073395,-0.139178,-0.125164,-0.400567,0.002630517,-0.004685893,0.077132217,-0.070112716,0.41111216,-0.14683822
45664.25,0.51664,0.927995,-0.082924,-0.162186,-0.108666,-0.419971,0.009472619,-0.000216903,0.065306633,-0.097561265,0.430653784,-0.139668739
45674.125,0.517129,0.915772,-0.094896,-0.2082,-0.095835,-0.447257,0.015539337,0.012641849,0.055776833,-0.144563224,0.457920316,-0.148259466
45736,0.571152,0.90306,-0.023308,-0.328987,-0.094613,-0.629774,0.002518505,0.011067613,0.068712496,-0.235181504,0.630065869,-0.248004067
45745.875,0.579952,0.912105,-0.018177,-0.329626,-0.11111,-0.641295,0.013330357,-0.001182177,0.080939943,-0.227264478,0.644135384,-0.256317133
45755.75,0.576041,0.917483,-0.019399,-0.322596,-0.133107,-0.640688,0.008902226,-0.00660643,0.083444376,-0.208341746,0.646151894,-0.267110864
45765.625,0.575063,0.918217,-0.029416,-0.316205,-0.152049,-0.635837,0.007336212,-0.00254462,0.083801144,-0.191014841,0.643766364,-0.276534608
45775.5,0.574574,0.908682,-0.039434,-0.315566,-0.166102,-0.626135,0.009367556,0.002862373,0.075777558,-0.180491812,0.636266049,-0.286015794
45785.375,0.575307,0.894014,-0.046031,-0.31301,-0.184433,-0.613402,0.015788076,0.004528131,0.063996364,-0.166144566,0.62603422,-0.297875719
45795.25,0.572618,0.878858,-0.055315,-0.319401,-0.202152,-0.600668,0.018158541,0.009887292,0.050197608,-0.159214211,0.615856876,-0.314731028
45805.125,0.572618,0.863212,-0.059469,-0.324514,-0.21315,-0.574594,0.026502403,0.014555978,0.037134822,-0.157865511,0.590317298,-0.327878775
45867,0.520551,0.848299,-0.060202,-0.352633,-0.281584,-0.195616,-0.010754617,0.002321855,-0.0029605,-0.155987739,0.214779515,-0.414056501
45877,0.522018,0.823364,-0.057514,-0.351355,-0.291361,-0.121639,-0.005795536,0.006620319,-0.023444056,-0.142430227,0.139927897,-0.428102124
45887,0.524951,0.801606,-0.047741,-0.345603,-0.307247,-0.061609,0.000885561,0.0052084,-0.040626755,-0.12329696,0.078241153,-0.443073361
45897,0.525685,0.789383,-0.036746,-0.339852,-0.32069,-0.002185,-0.000152726,0.001379622,-0.05088537,-0.105434723,0.016936898,-0.454909763
45907,0.525929,0.776915,-0.030638,-0.336017,-0.342686,0.046325,0.002020249,-0.011128221,-0.061379204,-0.086651313,-0.0266932,-0.473567469
45917,0.523729,0.778138,-0.042366,-0.327709,-0.359795,0.084526,0.00847509,-0.002675367,-0.061114115,-0.074625379,-0.062138313,-0.484314111
45927,0.514929,0.787427,-0.046764,-0.31301,-0.386679,0.144556,0.005868742,0.001668365,-0.058011252,-0.052783971,-0.120977524,-0.500969697
45937,0.507596,0.802829,-0.045786,-0.292559,-0.409287,0.20398,-0.008634613,0.000184428,-0.049100494,-0.023028913,-0.179796251,-0.511720074
45999,0.519574,0.798673,-0.024041,-0.215869,-0.532713,0.354965,0.002868343,-0.007995014,-0.046930472,0.111452191,-0.334608331,-0.576193015
46008.875,0.505885,0.78865,-0.030638,-0.218425,-0.540045,0.360422,-0.008342692,-0.009851736,-0.062631084,0.11453847,-0.33486014,-0.586525129
46018.75,0.500751,0.766892,-0.047985,-0.226094,-0.541267,0.365273,-0.006904376,3.36E-05,-0.082868716,0.110767107,-0.334719648,-0.594311561
46028.625,0.500507,0.745624,-0.064599,-0.248462,-0.539434,0.359816,-0.002648121,0.009917805,-0.099705569,0.094112141,-0.32412174,-0.606859096
46038.5,0.510285,0.743912,-0.06802,-0.275943,-0.538823,0.341018,-0.00445716,0.007804474,-0.095377543,0.076759507,-0.301187959,-0.621419208
46048.375,0.511751,0.736578,-0.061423,-0.311732,-0.529658,0.311307,-0.010967289,0.004921831,-0.101075912,0.049086345,-0.272950786,-0.630646402
46058.25,0.518351,0.741468,-0.059224,-0.34113,-0.519881,0.272499,-0.00354924,0.008517682,-0.093421328,0.015213403,-0.237672226,-0.635753176
46068.125,0.52324,0.764936,-0.041144,-0.376919,-0.504606,0.233692,-0.013535903,-0.010534394,-0.07247328,-0.021893751,-0.197575623,-0.641709931
46129,0.542552,0.707487,-0.060935,-0.531578,-0.506439,-0.102235,0.012841587,0.001919084,-0.106442496,-0.13059758,0.144674923,-0.715207008
46139,0.548174,0.721177,-0.061912,-0.574397,-0.510716,-0.164691,0.019149862,0.009621779,-0.092274932,-0.171697266,0.202280769,-0.739924598
46149,0.538152,0.728267,-0.058247,-0.621689,-0.51316,-0.231391,0.020942903,0.008941282,-0.092886689,-0.220500178,0.2679915,-0.763500112
46159,0.514929,0.728022,-0.051161,-0.6562,-0.514993,-0.274443,0.011379308,0.010989059,-0.106951789,-0.254300421,0.305606893,-0.78298845
46169,0.503685,0.747335,-0.031371,-0.684958,-0.520492,-0.29324,0.002574231,-0.001798757,-0.098233701,-0.282444061,0.320339575,-0.802294828
46179,0.484129,0.757114,-0.022331,-0.69774,-0.530269,-0.276262,-0.007696182,-0.003722615,-0.101096177,-0.295299475,0.299872362,-0.816836458
46189,0.48144,0.762492,-0.021354,-0.708605,-0.543711,-0.23321,-0.004764807,0.004373196,-0.09800627,-0.302390965,0.251472769,-0.83513517
46199,0.481685,0.768848,-0.00987,-0.712439,-0.55532,-0.174999,-0.008074105,-0.00718587,-0.092735829,-0.299841937,0.193473114,-0.848078563
46260,0.382684,0.702842,0.032398,-0.673455,-0.611534,0.515046,-0.010540049,-0.003344564,-0.199149657,-0.304377558,-0.536611266,-0.843913801
46270,0.383906,0.687441,0.021648,-0.665786,-0.593814,0.653297,-0.01320619,0.003756983,-0.212447422,-0.303786178,-0.668397102,-0.826826648
46280,0.39784,0.666661,0.005034,-0.683041,-0.568763,0.773964,-0.002893076,0.01707156,-0.223830503,-0.32857617,-0.78269035,-0.817612468
46290,0.409329,0.646859,0.000147,-0.70477,-0.533324,0.827324,0.002978453,0.020197511,-0.234781072,-0.359137495,-0.830446434,-0.804350186
46300,0.41764,0.620213,0.001857,-0.732251,-0.48933,0.875833,0.012085812,0.015033383,-0.252525108,-0.402218645,-0.870910566,-0.788957393
46310,0.416418,0.574253,-0.029661,-0.76804,-0.425174,0.882503,0.026917567,0.042771425,-0.291835977,-0.461480132,-0.868185136,-0.763387566
46320,0.429618,0.530738,-0.053116,-0.810859,-0.359795,0.853398,0.053382677,0.062135555,-0.320025572,-0.525407725,-0.829119054,-0.742792854
46330,0.423751,0.481845,-0.064111,-0.853038,-0.301748,0.806101,0.077292186,0.070448933,-0.363672568,-0.589272853,-0.776212604,-0.720261067
46391,0.411284,0.48429,0.053655,-0.843452,0.102746,0.356178,-0.000554138,0.009848597,-0.362447736,-0.736561356,-0.34673709,-0.4313717
46400.875,0.409084,0.482334,0.05732,-0.768679,0.144295,0.260978,-0.001690416,0.00450786,-0.36497385,-0.699415382,-0.243839575,-0.362157913
46410.75,0.409573,0.481356,0.058786,-0.672177,0.184011,0.16396,-0.000956068,0.001176419,-0.365250335,-0.643967295,-0.140127644,-0.279705586
46420.625,0.419351,0.491868,0.057564,-0.594208,0.211507,0.048144,0.006346795,0.003233533,-0.351114596,-0.595082057,-0.020838046,-0.213493149
46430.5,0.434751,0.519493,0.06074,-0.485563,0.238392,-0.032503,0.008174543,0.002712884,-0.319928994,-0.523498326,0.062783702,-0.125165198
46440.375,0.442573,0.553718,0.060007,-0.371167,0.259777,-0.125277,-0.001713321,0.004362035,-0.288625724,-0.441011635,0.15730813,-0.041306761
46450.25,0.448929,0.564474,0.055854,-0.252936,0.263443,-0.204711,-0.000463906,0.005367208,-0.276633709,-0.344748594,0.235549586,0.03082576
46460.125,0.44184,0.554451,0.043637,-0.157073,0.265887,-0.276262,0.001104498,0.016415948,-0.289878897,-0.265596522,0.306123467,0.086228922
46520,0.416907,0.631947,-0.006205,0.493518,0.271998,-0.352058,0.011261352,-0.004260391,-0.24299142,0.265792255,0.347986261,0.499747739
46530,0.412262,0.671306,-0.011336,0.593854,0.268331,-0.298091,-0.00448942,-0.007516776,-0.21217797,0.357729287,0.291013477,0.548510033
46540,0.40664,0.690863,-0.02795,0.678853,0.26161,-0.228359,-0.01452177,-0.001781795,-0.197993192,0.437153953,0.21687884,0.585908705
46550,0.399795,0.681574,-0.050428,0.741483,0.268942,-0.142862,-0.013642897,0.009881213,-0.208395063,0.489738767,0.125663729,0.622013631
46560,0.397351,0.667884,-0.070952,0.810505,0.27933,-0.091927,-0.007505267,0.019979372,-0.219913122,0.545896347,0.068435345,0.663858388
46570,0.410306,0.69013,-0.077304,0.854602,0.303159,-0.027652,0.000701516,0.021662835,-0.193689533,0.581410112,0.004172938,0.696390306
46580,0.418618,0.767626,-0.050184,0.901894,0.324545,0.040867,-0.021623364,-0.014235354,-0.124592138,0.621812531,-0.063090444,0.727860652
46590,0.42424,0.833631,-0.047985,0.935766,0.340432,0.122727,-0.049470085,-0.022148559,-0.06496795,0.647285667,-0.145799638,0.752580627
46650,0.421795,0.713599,-0.131789,0.833512,0.546344,0.351327,-0.001259501,0.003681261,-0.16066231,0.485228754,-0.436935648,0.830845941
46660,0.43524,0.764692,-0.106135,0.788776,0.592782,0.325253,-0.012052253,-0.026964939,-0.114234802,0.424676976,-0.412798937,0.853577234
46670,0.442084,0.846099,-0.065088,0.766408,0.617223,0.305243,-0.040021648,-0.07835019,-0.047205298,0.395561106,-0.390885782,0.867328346
46680,0.440129,0.907216,-0.04432,0.75043,0.631887,0.292509,-0.06709685,-0.106335898,0.001453623,0.377443688,-0.374464267,0.874814641
46690,0.444529,0.893037,-0.052383,0.758739,0.632498,0.276137,-0.053947897,-0.091989052,-0.006776595,0.387730098,-0.351105416,0.8822588
46700,0.438418,0.834854,-0.087078,0.747874,0.630054,0.249457,-0.036019386,-0.04278729,-0.0546715,0.378168663,-0.316991581,0.880350588
46710,0.445018,0.783027,-0.096851,0.724228,0.637386,0.187001,-0.007164204,-0.018166593,-0.094367034,0.346958759,-0.25033063,0.884698072
46720,0.46384,0.827031,-0.067043,0.695469,0.652662,0.100291,-0.007574276,-0.054179844,-0.050984848,0.301653794,-0.170116133,0.89429782
46780,0.459929,0.818963,-0.079015,0.699303,0.601947,-0.310219,0.003739293,0.005290236,-0.057430914,0.304831256,0.258610277,0.887580608
46789.875,0.469951,0.845366,-0.050673,0.692273,0.589116,-0.383589,0.008648152,-0.020166056,-0.031710834,0.304322925,0.340045075,0.874755391
46799.75,0.47044,0.892792,-0.033081,0.686522,0.577506,-0.435736,-0.002850077,-0.037382006,0.008999586,0.305909836,0.399656089,0.861037561
46809.625,0.469951,0.942419,-0.01891,0.699303,0.55551,-0.484852,-0.014217003,-0.051822768,0.051892285,0.328813251,0.457358165,0.845814911
46819.5,0.45284,0.962954,-0.007671,0.710168,0.529236,-0.509107,-0.026389546,-0.061448474,0.062040956,0.353138344,0.490662797,0.823506284
46829.375,0.441596,0.943641,-0.014024,0.717837,0.500518,-0.525479,-0.018894291,-0.049293368,0.040612899,0.374386662,0.516534356,0.79684584
46839.25,0.446973,0.915772,-0.035036,0.714642,0.469967,-0.528511,-0.009103419,-0.02571083,0.019267787,0.376608895,0.524925286,0.770405887
46849.125,0.449662,0.889859,-0.055315,0.70889,0.452248,-0.540638,0.002687451,-0.002875916,-0.001456456,0.378078014,0.538325901,0.752731673
46909,0.485596,0.939241,0.049501,0.684604,0.245724,-0.456959,-0.00176538,-0.013554859,0.058414205,0.50364194,0.465118556,0.51757509
46919,0.488529,0.904038,0.021648,0.68077,0.215784,-0.393897,0.013461863,0.000703547,0.027731584,0.508946387,0.397437016,0.498179453
46929,0.500262,0.883013,-0.00254,0.657124,0.203564,-0.333867,0.024460353,0.01831077,0.014419482,0.486729548,0.336577563,0.484280207
46939,0.508818,0.888392,0.017494,0.630921,0.208452,-0.284145,0.023348127,0.000681028,0.023668181,0.456674242,0.290205596,0.479042038
46949,0.518107,0.912838,0.037529,0.616222,0.212729,-0.218657,0.020370408,-0.014187784,0.050000122,0.440474914,0.229014756,0.475739589
46959,0.510774,0.929706,0.067093,0.607914,0.233503,-0.136192,0.008326112,-0.038709116,0.062156804,0.423489395,0.151270043,0.490311584
46969,0.496351,0.935085,0.080286,0.60408,0.257333,-0.058577,-0.003968154,-0.047303152,0.060632255,0.410007217,0.078618408,0.510173903
46979,0.484129,0.922128,0.06807,0.605358,0.281774,0.011155,-0.008733216,-0.035675968,0.043065395,0.400275287,0.00950934,0.534479743
47039,0.53204,0.895726,0.022137,0.51972,0.544511,0.053601,0.011565861,0.00201668,0.041990326,0.176712717,-0.037450199,0.732696576
47048.875,0.522018,0.913327,0.027756,0.506938,0.579339,0.021464,0.002973169,0.002020711,0.052343325,0.15477608,0.00035919,0.754403574
47058.75,0.518107,0.919194,0.034109,0.506299,0.616,-0.012493,-0.011780719,0.000738777,0.055640358,0.129398412,0.039942774,0.785882547
47068.625,0.523974,0.911127,0.03362,0.490322,0.636164,-0.057364,-0.011057167,0.005809922,0.051511032,0.097982876,0.089177677,0.794265463
47078.5,0.540107,0.886192,0.04828,0.48457,0.651439,-0.119213,0.0077741,-0.004475614,0.03889476,0.076711145,0.155062579,0.802161824
47088.375,0.553552,0.852455,0.060007,0.459007,0.660605,-0.197435,0.031378201,-0.010439084,0.01764759,0.041796132,0.237035615,0.79254916
47098.25,0.564307,0.83412,0.081508,0.437278,0.666715,-0.272018,0.047768406,-0.024683518,0.008935589,0.012676723,0.315784365,0.780918861
47108.125,0.594863,0.842188,0.117668,0.410436,0.669159,-0.376313,0.07104607,-0.058623738,0.033684714,-0.015717828,0.418200306,0.763350775
47167,0.579218,0.904771,0.118157,0.385512,0.444916,-0.573988,0.002412562,-0.010166127,0.080720112,0.127068811,0.622487459,0.521914604
47177,0.581907,0.895481,0.096412,0.352918,0.409477,-0.527904,0.0044578,0.013715207,0.07218901,0.109863109,0.574550944,0.478253563
47187,0.584352,0.89157,0.11156,0.31649,0.385036,-0.462417,0.006173948,0.00608475,0.071790472,0.085524954,0.510063501,0.441326218
47197,0.589974,0.898659,0.122066,0.283258,0.369149,-0.3751,0.015226674,-0.012633091,0.081742105,0.062908789,0.417694818,0.422823382
47207,0.58533,0.926284,0.10252,0.247469,0.347764,-0.288996,0.006140337,0.001158969,0.100492872,0.041418518,0.326347142,0.396839317
47217,0.575307,0.940952,0.089082,0.198259,0.325156,-0.165904,-0.00115744,0.007953143,0.106453714,0.007674592,0.198488211,0.364829718
47227,0.556729,0.941196,0.077354,0.161192,0.313547,-0.042811,-0.011305339,0.011422244,0.096139796,-0.021823884,0.071923659,0.347099509
47237,0.541574,0.936551,0.058541,0.116456,0.305604,0.097259,-0.021139802,0.029628161,0.0828354,-0.061599947,-0.068631724,0.328496957
47296,0.581174,0.925551,0.065382,-0.22929,0.350208,0.706051,0.000893893,0.011711475,0.094780672,-0.404630692,-0.678070276,0.224103248
47306,0.570418,0.926039,0.072712,-0.268274,0.348986,0.772751,-0.004522787,0.011979127,0.089976148,-0.437228317,-0.744267861,0.214016414
47316,0.560641,0.919928,0.079309,-0.30598,0.338598,0.813984,-0.005880977,0.007194174,0.080180277,-0.463091758,-0.787089309,0.192038436
47326,0.550618,0.915772,0.080042,-0.330265,0.337987,0.842483,-0.015081946,0.002951745,0.071442524,-0.483426366,-0.817230754,0.177540506
47336,0.555263,0.913083,0.076377,-0.353912,0.33982,0.853398,-0.019211861,0.002827355,0.071211427,-0.505035819,-0.829637806,0.160185566
47346,0.562107,0.903793,0.068314,-0.385227,0.342265,0.840664,-0.009994199,0.007940498,0.066447342,-0.53147554,-0.818313407,0.141979051
47356,0.554285,0.90746,0.058541,-0.396091,0.356318,0.81459,-0.017919692,0.016501612,0.064682649,-0.546251661,-0.792391739,0.145368223
47366,0.547196,0.915772,0.051212,-0.417181,0.372204,0.760017,-0.028158782,0.0243081,0.067380291,-0.571135813,-0.737135957,0.14365274
47426,0.519329,0.871279,0.049501,-0.331544,0.367316,0.130609,-0.0008177,-0.004063204,0.015511141,-0.476206585,-0.11084459,0.151135517
47435.875,0.516151,0.864434,0.037774,-0.323874,0.359984,0.017825,-0.002793505,0.003738961,0.007503393,-0.463189059,0.000273451,0.142324978
47445.75,0.52104,0.8505,0.022625,-0.318762,0.353874,-0.121032,0.008117346,0.014279377,-0.002465524,-0.452283974,0.137547122,0.134181822
47455.625,0.527396,0.845855,0.001857,-0.305341,0.350208,-0.272624,0.017869827,0.030593085,-0.003824612,-0.435234226,0.287700465,0.134172376
47465.5,0.529107,0.851966,-0.008649,-0.299589,0.341043,-0.412695,0.018303492,0.036993548,0.002083603,-0.422509124,0.426214223,0.127312749
47475.375,0.534729,0.863212,-0.005717,-0.282973,0.330044,-0.513351,0.019691616,0.029910612,0.014800641,-0.400610157,0.525319637,0.126817942
47485.25,0.533752,0.867123,-0.001074,-0.263161,0.30927,-0.626742,0.018021703,0.021321603,0.017848346,-0.371055278,0.637007304,0.11936019
47495.125,0.539129,0.873968,0.001857,-0.252297,0.293383,-0.716484,0.019105219,0.018543178,0.026535305,-0.351786045,0.726190835,0.1094081
47555,0.554774,0.910883,0.020915,-0.235041,0.232281,-0.71042,0.010116711,0.0124024,0.066613004,-0.312905512,0.716069935,0.056826921
47565,0.551841,0.910149,0.027023,-0.240154,0.230448,-0.638263,0.014563834,0.000543875,0.06462084,-0.317131314,0.643387166,0.060337103
47575,0.546707,0.91895,0.025069,-0.253575,0.230448,-0.521234,0.016892753,-0.001362644,0.069438581,-0.329601902,0.525931609,0.062048152
47585,0.543285,0.930195,0.024824,-0.273387,0.239003,-0.380557,0.007745123,-0.005968274,0.077470163,-0.352710652,0.384884556,0.064386262
47595,0.54524,0.94853,0.021648,-0.281695,0.253056,-0.22654,0.014644129,0.000857675,0.094188863,-0.367434219,0.231129345,0.079253419
47605,0.547685,0.974199,0.01896,-0.302785,0.259166,-0.078587,0.004570776,-0.001090275,0.117747714,-0.390044209,0.082610767,0.077863115
47615,0.547685,0.984467,0.017983,-0.311093,0.26161,0.091802,-0.007014361,0.014314044,0.12658929,-0.400088845,-0.087042837,0.077451371
47625,0.550129,0.987156,0.019205,-0.32707,0.264665,0.279776,-0.006215475,0.013188782,0.130165979,-0.416716136,-0.274985169,0.077638755
47685,0.581907,1.002068,-0.020132,-0.322596,0.254278,0.824899,-0.023518399,0.002473303,0.15870708,-0.398864351,-0.829882159,0.037238065
47695,0.586552,1.003291,-0.020621,-0.311732,0.234725,0.817016,-0.016730051,0.002184764,0.162229167,-0.37920084,-0.821748978,0.026891464
47705,0.586796,1.002068,-0.025018,-0.282334,0.218228,0.780634,-0.015073504,0.002754496,0.161404721,-0.345756641,-0.785169622,0.026199235
47715,0.584107,0.998157,-0.031615,-0.270191,0.196231,0.72788,-0.020596783,0.002805005,0.15674794,-0.324592101,-0.732036978,0.008994855
47725,0.595596,0.996446,-0.042854,-0.240793,0.167514,0.646021,-0.014129473,0.007176175,0.161561256,-0.285494069,-0.649514523,-0.003059785
47735,0.602196,0.999868,-0.053116,-0.226094,0.150405,0.575076,-0.011971565,0.010150226,0.168311176,-0.264885214,-0.578059289,-0.011655415
47745,0.604885,1.006469,-0.065577,-0.198613,0.12352,0.46593,-0.011427389,0.015377613,0.175924742,-0.22878316,-0.468091866,-0.018529693
47755,0.610019,1.024559,-0.072418,-0.181997,0.09358,0.356178,-0.016585319,0.021385322,0.19430159,-0.200164028,-0.357403698,-0.030656985
47815,0.623219,1.174906,-0.079259,-0.10978,-0.058563,-0.225934,0.011709006,-0.009199443,0.332241078,-0.077347892,0.230054121,-0.087291755
47825,0.626641,1.193485,-0.088055,-0.104029,-0.083004,-0.283539,0.002113755,-0.011333226,0.35081685,-0.062135876,0.2900492,-0.100581589
47835,0.628596,1.194463,-0.098072,-0.092525,-0.103778,-0.352664,-0.004746256,-0.007885784,0.353295309,-0.04327462,0.361063558,-0.107065682
47845,0.633241,1.181262,-0.105158,-0.091886,-0.12883,-0.422396,-0.002231076,-0.005765106,0.344393569,-0.031672075,0.433198377,-0.121633188
47855,0.638863,1.166349,-0.11151,-0.097638,-0.153271,-0.474544,0.007830666,0.011670056,0.334448535,-0.025679041,0.486299985,-0.145155426
47865,0.64253,1.155348,-0.088788,-0.10275,-0.170379,-0.52184,0.017648349,0.000287293,0.324856809,-0.022370191,0.533619924,-0.16325717
47875,0.653041,1.16366,-0.063866,-0.104029,-0.209484,-0.543063,0.024796247,-0.015024685,0.335591784,-0.004396815,0.556032092,-0.201077054
47885,0.663308,1.180528,-0.049451,-0.100194,-0.2547,-0.557616,0.026189433,-0.030560029,0.354418496,0.020017888,0.573346065,-0.238159831
47946,0.681641,1.109389,-0.029905,-0.042676,-0.500329,-0.170755,0.001680463,0.008097825,0.302384089,0.22326555,0.180370883,-0.446011724
47956,0.674797,1.09301,-0.013291,-0.037564,-0.525991,-0.270805,0.004109028,-0.000822784,0.284593687,0.241571204,0.277065933,-0.4650707
47966,0.668441,1.076875,0.004789,-0.017113,-0.553487,-0.208349,0.008330908,-0.011531471,0.267396423,0.274240995,0.210855494,-0.479981101
47976,0.650597,1.057806,0.016028,0.00206,-0.56693,-0.145893,0.001947275,-0.016110895,0.241862929,0.298693423,0.144445131,-0.482303306
47986,0.636174,1.03336,0.010653,0.03657,-0.579761,-0.091927,0.013182778,-0.007815517,0.213436799,0.330729071,0.087610844,-0.478386222
47996,0.61173,1.012825,0.005278,0.07172,-0.580983,-0.013099,0.007107407,-0.016556458,0.183102404,0.359107798,0.012455226,-0.462323529
48006,0.590218,1.000846,-0.013779,0.100479,-0.577928,0.081494,-0.002718707,-0.011396505,0.161939152,0.379718117,-0.078703087,-0.447613729
48016,0.580685,0.995712,-0.033081,0.133073,-0.563875,0.185182,-0.00794727,0.008200474,0.153083432,0.39869624,-0.183351603,-0.421164232
48077,0.555018,1.001579,-0.078526,0.204011,-0.387901,0.666637,-0.011513389,-0.013606899,0.147629775,0.391971462,-0.631904697,-0.289045654
48086.875,0.557707,0.991801,-0.092941,0.188673,-0.359184,0.685434,-0.010224477,-0.011768982,0.141534626,0.364872965,-0.65067621,-0.27913904
48096.75,0.552818,0.980066,-0.1098,0.166944,-0.321912,0.680584,-0.011517447,-0.005996275,0.130497474,0.32644527,-0.647005013,-0.2636479
48106.625,0.546707,0.964176,-0.115419,0.14202,-0.279751,0.650265,-0.012695038,0.00829708,0.114277992,0.282300982,-0.622742998,-0.231888308
48116.5,0.544507,0.945841,-0.106624,0.105592,-0.246145,0.608426,-0.004123478,0.007651616,0.096538279,0.231352872,-0.585286385,-0.214090929
48126.375,0.540596,0.94633,-0.094896,0.069164,-0.211317,0.551428,-0.001300172,-0.000359483,0.093978032,0.178782896,-0.531948751,-0.196414295
48136.25,0.533018,0.96491,-0.089521,0.05063,-0.186266,0.481089,-0.008465739,-0.005578646,0.105925276,0.146389569,-0.4642116,-0.178277117
48146.125,0.515663,0.979577,-0.088788,0.032736,-0.161214,0.41257,-0.030751116,-0.007198749,0.110119491,0.116942892,-0.397738102,-0.159387473
48206,0.491707,0.895237,-0.015001,-0.016474,-0.154493,-0.100416,-0.000367667,0.007760358,0.021464503,0.059311684,0.101821353,-0.142609218
48216,0.486818,0.88008,-0.004984,0.006533,-0.1771,-0.228359,0.011087586,0.004588036,0.005690523,0.088624724,0.228869057,-0.152707354
48226,0.467751,0.864434,0.003323,0.037849,-0.204596,-0.333867,0.017638902,-0.007500364,-0.017309411,0.126664255,0.334977478,-0.162805097
48236,0.437684,0.87079,-0.005228,0.077472,-0.237591,-0.418152,0.00377272,-0.006124627,-0.025413885,0.174697541,0.420422865,-0.173285523
48246,0.415929,0.867857,-0.019643,0.112622,-0.263254,-0.621285,-0.004889841,-0.001770081,-0.037434932,0.216810192,0.625126305,-0.173758101
48256,0.403462,0.846344,-0.037723,0.140742,-0.293805,-0.507288,3.34E-05,0.006106329,-0.061668775,0.255073853,0.513102496,-0.187440555
48266,0.393684,0.819452,-0.039189,0.159275,-0.324356,-0.541851,0.006794557,-0.002010366,-0.0900691,0.285372259,0.549937257,-0.200772342
48276,0.394173,0.818719,-0.054582,0.157358,-0.340853,-0.565499,0.007633977,0.013383061,-0.089826958,0.290804189,0.574243562,-0.215426744
48337,0.39124,0.803318,-0.068264,-0.04715,-0.414175,-0.370855,0.003048882,0.006939789,-0.103902313,0.124407195,0.401267437,-0.367157702
48347,0.388795,0.801851,-0.039678,-0.08933,-0.421507,-0.287177,0.004795206,-0.014485572,-0.108109818,0.092561068,0.314878109,-0.400503252
48357,0.393684,0.823853,-0.009382,-0.113615,-0.434339,-0.214413,0.002331193,-0.039006106,-0.087705109,0.078402005,0.239431803,-0.429018889
48367,0.398818,0.846344,0.005034,-0.127675,-0.439227,-0.124671,-0.001253015,-0.047251417,-0.065577698,0.070010648,0.146261719,-0.445499877
48377,0.398084,0.851722,0.006744,-0.148126,-0.458168,-0.034322,-0.005501494,-0.041655527,-0.060754948,0.062161091,0.052865663,-0.475792442
48387,0.401995,0.83901,0.000636,-0.159629,-0.468556,0.045112,-0.004445571,-0.028986223,-0.070119255,0.061266158,-0.02958052,-0.492374538
48397,0.405418,0.817741,-0.019155,-0.183914,-0.472222,0.111812,-0.004677658,-0.009993423,-0.087142255,0.048007806,-0.095449748,-0.507842984
48407,0.416907,0.798917,-0.030149,-0.212034,-0.47711,0.153651,0.013987744,0.001448976,-0.098450764,0.025253819,-0.136825497,-0.526157797
48468,0.415929,0.806985,0.002835,-0.339213,-0.469167,0.383464,-0.014102368,0.003615084,-0.09224573,-0.080568994,-0.386868984,-0.571024342
48478,0.424484,0.789628,0.0065,-0.368611,-0.466723,0.387709,-0.007598359,0.00764157,-0.10354857,-0.104068778,-0.395456759,-0.580350186
48488,0.440862,0.803807,0.017006,-0.401843,-0.471611,0.378613,0.002566934,0.00539877,-0.08309299,-0.134942159,-0.390749058,-0.59694918
48498,0.446973,0.835587,0.02629,-0.426128,-0.477721,0.35072,-0.001470022,0.00365328,-0.052019961,-0.158964003,-0.366170955,-0.611110647
48508,0.442084,0.8527,0.035086,-0.439549,-0.48933,0.315551,-0.005908401,2.36E-05,-0.038890396,-0.171916827,-0.333139759,-0.625845118
48518,0.437684,0.836076,0.032398,-0.46703,-0.502162,0.291903,-0.011941273,-0.00233296,-0.055811483,-0.184727434,-0.305527026,-0.654232426
48528,0.429373,0.799406,0.02629,-0.48109,-0.52538,0.240362,-0.008234933,0.011094856,-0.092304357,-0.180937417,-0.260175973,-0.681773964
48538,0.432307,0.77936,0.042171,-0.490037,-0.551654,0.181544,0.003204566,-0.005985202,-0.107798423,-0.1734302,-0.20280889,-0.711482354
48598,0.407373,0.861989,0.069292,-0.362859,-0.852886,-0.044024,-0.002772229,-0.008218229,-0.044121371,0.037995525,-0.016822609,-0.926980386
48607.875,0.398084,0.820186,0.034597,-0.385866,-0.877327,-0.06646,0.004266444,0.015967889,-0.087804998,0.033024119,0.011309697,-0.960100862
48617.75,0.39784,0.770315,0.003079,-0.418459,-0.887714,-0.088895,0.022244027,0.037751997,-0.134118175,0.015758685,0.04011842,-0.984473757
48627.625,0.399795,0.739512,0.000147,-0.477894,-0.87916,-0.114362,0.03164722,0.033735379,-0.160610675,-0.031465148,0.073783264,-1.003966943
48637.5,0.39564,0.729244,0.012119,-0.526465,-0.883437,-0.153776,0.023082757,0.023343989,-0.170905955,-0.058074555,0.11278624,-1.032075577
48647.375,0.399062,0.746357,0.038262,-0.569923,-0.87916,-0.184701,0.017181639,0.0067853,-0.152992336,-0.095668772,0.13682001,-1.050702985
48657.25,0.399306,0.778871,0.052677,-0.621689,-0.882826,-0.18652,0.010312145,0.001662415,-0.123215489,-0.14926672,0.135268773,-1.077074962
48667.125,0.39784,0.795006,0.054143,-0.6562,-0.884659,-0.167723,0.001790027,0.001976188,-0.109362273,-0.181272536,0.118733242,-1.092883194
48728,0.372906,0.650282,0.020915,-0.950819,-0.748402,-0.059183,-0.003644318,-0.002001163,-0.250102863,-0.446143762,0.043009764,-1.125509154
48737.875,0.374129,0.633414,0.006011,-0.994276,-0.703187,-0.060396,0.00385138,0.010337799,-0.264404844,-0.501999576,0.054482119,-1.109834457
48747.75,0.371195,0.604811,-0.022331,-1.034539,-0.644529,-0.056758,0.012834381,0.036655661,-0.291076599,-0.559208967,0.061038669,-1.08280638
48757.625,0.375351,0.568141,-0.028195,-1.066493,-0.599925,-0.05979,0.028057709,0.044275705,-0.320500218,-0.596466199,0.067133987,-1.067994977
48767.5,0.373151,0.539539,0.007477,-1.100365,-0.538212,-0.05979,0.034360084,0.01584844,-0.345043423,-0.649311072,0.063836872,-1.038446012
48777.375,0.370217,0.54834,0.041438,-1.11059,-0.476499,-0.048269,0.023388576,-0.007402242,-0.337540438,-0.688421634,0.048297542,-0.993244352
48787.25,0.386595,0.590143,0.072957,-1.086305,-0.431284,-0.040386,0.013441514,-0.025151041,-0.291315353,-0.692842745,0.035330275,-0.941496772
48797.125,0.389284,0.627791,0.0991,-1.043486,-0.396456,-0.013099,-0.00620342,-0.047296967,-0.25621986,-0.677068828,0.01026472,-0.887515867
48858,0.41984,0.577187,0.10252,-0.51624,-0.225371,0.182757,-0.005287921,-0.003780889,-0.278973959,-0.306620332,-0.215747318,-0.458402675
48868,0.445996,0.608234,0.102764,-0.427407,-0.213761,0.188821,-0.003376772,-0.00434542,-0.238822501,-0.242176981,-0.216617597,-0.398059047
48878,0.450151,0.615568,0.087128,-0.307258,-0.203374,0.200948,-0.002912099,0.006002525,-0.232467158,-0.152858054,-0.225431132,-0.319317681
48888,0.439396,0.607745,0.07369,-0.188388,-0.192376,0.213075,-0.006447322,0.011447067,-0.246554287,-0.064707524,-0.235687008,-0.241172325
48898,0.428395,0.596988,0.051456,-0.081022,-0.1771,0.229447,-0.007668328,0.024977489,-0.263873659,0.011198896,-0.250709604,-0.166114958
48908,0.429129,0.604567,0.027512,0.005894,-0.153271,0.255521,-0.00939331,0.042167262,-0.259362738,0.064428735,-0.274772051,-0.095744338
48918,0.422529,0.606523,0.014318,0.111983,-0.131274,0.26401,-0.013692819,0.047939865,-0.262354972,0.136267625,-0.283888229,-0.017690201
48928,0.407862,0.602856,0.017494,0.214876,-0.097057,0.29069,-0.023742684,0.044959289,-0.273702709,0.19622593,-0.310319213,0.072731033
48988,0.392951,0.709687,0.005278,0.650733,0.033701,0.435612,-0.005171747,-0.011298242,-0.188865248,0.550809044,-0.438119494,0.344974949
48997.875,0.393195,0.698197,-0.018666,0.666071,0.059974,0.43925,-0.001872142,0.001489388,-0.198486397,0.551986435,-0.44491124,0.370881361
49007.75,0.38024,0.683529,-0.03186,0.689717,0.102135,0.430761,-0.001601487,0.014889663,-0.217321813,0.5560912,-0.435057028,0.416153934
49017.625,0.372906,0.691352,-0.008649,0.6878,0.143073,0.41257,-0.010869619,-0.006517979,-0.214544307,0.536672241,-0.414128631,0.451921576
49027.5,0.372417,0.726311,0.026779,0.689717,0.170569,0.405293,-0.027257366,-0.040714259,-0.184807636,0.5270957,-0.40360746,0.477846085
49037.375,0.37144,0.755647,0.058541,0.697386,0.192565,0.398017,-0.040863972,-0.071241784,-0.159969135,0.525334686,-0.392811283,0.501566355
49047.25,0.377551,0.781316,0.067337,0.711446,0.206619,0.398017,-0.046315819,-0.078698913,-0.134439461,0.533501135,-0.388854833,0.520992142
49057.125,0.39784,0.799162,0.047302,0.722311,0.217617,0.387709,-0.03779443,-0.058705241,-0.108765282,0.537378556,-0.378603427,0.535996587
49116,0.388795,0.859789,0.105941,0.77152,0.305604,0.280382,-0.010652146,-0.011162447,-0.050587496,0.560150045,-0.244656564,0.627396265
49126,0.377306,0.782294,0.081997,0.805392,0.307437,0.268255,0.002719009,-0.006111254,-0.127633972,0.58510888,-0.236143657,0.64576954
49136,0.381217,0.759558,0.06636,0.819452,0.320268,0.251883,0.01676549,0.009399682,-0.147774108,0.59461439,-0.212973286,0.662264542
49146,0.382195,0.81603,0.111805,0.845654,0.332488,0.228234,-0.003395181,-0.029971816,-0.092493251,0.618435239,-0.183275,0.679498231
49156,0.392218,0.947797,0.152852,0.878248,0.340432,0.232479,-0.04576422,-0.058854258,0.034388544,0.649246982,-0.181550769,0.697694529
49166,0.385862,1.04265,0.197075,0.914676,0.34532,0.263404,-0.085547162,-0.095969375,0.121748021,0.685048944,-0.206555198,0.716451428
49176,0.381217,1.063429,0.187546,0.935126,0.34532,0.31737,-0.090211803,-0.087453308,0.138242018,0.709815962,-0.255687968,0.724717337
49186,0.385373,1.024804,0.1443,0.943435,0.352041,0.339806,-0.070465872,-0.047359213,0.101067547,0.714588221,-0.277203777,0.736201279
49244,0.36924,0.941196,0.025313,0.49863,0.645329,0.171236,0.007829861,0.004515725,0.011309615,0.234311019,-0.148502987,0.785778831
49254,0.348462,0.964421,0.044615,0.427692,0.680768,0.130609,-0.009611251,-0.010930122,0.026310034,0.164170499,-0.10355997,0.791042102
49264,0.337462,0.935085,0.037529,0.375926,0.707042,0.088164,-0.015391171,-0.013173805,-0.005383216,0.102130591,-0.067041859,0.796289124
49274,0.335017,0.880813,0.021404,0.318408,0.727817,0.052995,-0.006637102,-0.003665918,-0.057413891,0.034039704,-0.037181518,0.794587027
49284,0.335506,0.824586,0.007233,0.254499,0.749202,-0.016131,0.00479889,0.014155986,-0.109867851,-0.043015132,0.033711303,0.789523168
49294,0.345528,0.819941,0.025313,0.181643,0.777309,-0.093746,0.015964311,0.005623725,-0.110029717,-0.124590773,0.115993985,0.785502583
49304,0.357751,0.866879,0.062939,0.129877,0.785252,-0.180456,0.013973721,-0.020482062,-0.0604195,-0.17826716,0.207077676,0.769020651
49314,0.361906,0.909416,0.089327,0.111983,0.78403,-0.255039,0.003279848,-0.04552349,-0.01821103,-0.197791777,0.280433383,0.757973387
49373,0.385373,0.930929,0.160914,0.124125,0.653273,-0.704357,0.015667111,0.007365895,0.020164081,-0.078826413,0.808729321,0.527289952
49383,0.385129,1.040938,0.223218,0.154162,0.612334,-0.721335,-0.010416195,-0.027687452,0.131736475,-0.031531004,0.821462429,0.493202093
49393,0.376573,1.094721,0.252048,0.222545,0.543289,-0.700112,-0.021429238,-0.040077291,0.183927399,0.058537795,0.791930189,0.451957885
49403,0.366551,1.100832,0.257668,0.290927,0.46569,-0.656454,-0.016730822,-0.039094617,0.187760589,0.14974965,0.7386881,0.405404098
49413,0.358728,1.054384,0.22786,0.352279,0.394201,-0.601274,-0.007070123,-0.030581313,0.136374223,0.226791573,0.669583054,0.375831693
49423,0.35384,0.983733,0.177773,0.378482,0.344098,-0.55701,0.012084161,-0.004787095,0.060362041,0.264045882,0.615101042,0.351912884
49433,0.35604,0.90966,0.122311,0.39382,0.305604,-0.52366,0.038613879,0.027725896,-0.016665865,0.287926947,0.573697137,0.332682223
49443,0.36044,0.871035,0.08615,0.374647,0.271998,-0.493341,0.056289552,0.057602702,-0.056838189,0.279842668,0.538117381,0.299743881
49502,0.390017,0.930195,0.098367,0.189312,0.162014,-0.128309,-0.005050807,-0.00858855,0.013386792,0.116596176,0.143080523,0.210912457
49512,0.396373,0.915772,0.079798,0.145854,0.151627,-0.036141,-0.002800808,0.01353272,0.000962863,0.074996017,0.051516234,0.193111324
49522,0.406395,0.897681,0.099344,0.112622,0.148572,0.029346,0.00897405,0.000417638,-0.009658344,0.0425431,-0.012440844,0.183449862
49532,0.407618,0.879835,0.143323,0.090893,0.141851,0.097866,0.012629976,-0.036759885,-0.020565092,0.022402305,-0.079886846,0.17628734
49542,0.413729,0.878858,0.191699,0.054465,0.135741,0.146981,0.013834015,-0.076213969,-0.01292775,-0.010506396,-0.128413328,0.162465697
49552,0.419351,0.902082,0.197075,0.044879,0.121687,0.215501,0.006360577,-0.069617492,0.011710779,-0.01608362,-0.19693336,0.155631296
49562,0.42424,0.933129,0.187057,0.031458,0.10519,0.299179,-0.001315055,-0.046807492,0.040916403,-0.023908252,-0.281112876,0.148211209
49572,0.413973,0.948041,0.16629,0.028262,0.09358,0.398623,-0.016122997,-0.024483912,0.047353013,-0.025227941,-0.381260941,0.149866272
49631,0.41764,0.95782,0.259867,0.03657,0.061807,0.783666,0.001194301,-0.006419355,0.07672213,-0.066927641,-0.741833542,0.253955816
49641,0.410795,0.983,0.255225,0.045518,0.031868,0.824899,-0.012571524,-0.001863096,0.095454161,-0.049354218,-0.790847921,0.235943944
49651,0.396618,0.9808,0.243008,0.071081,0.010482,0.854004,-0.023406768,0.002388364,0.085252867,-0.018704262,-0.8258992,0.228091814
49661,0.381951,0.959776,0.22615,0.073637,-0.012737,0.890386,-0.028748424,0.005985016,0.057042131,-0.009568471,-0.868388578,0.210194171
49671,0.361173,0.933129,0.200007,0.069164,-0.028012,0.907971,-0.03608598,0.018384839,0.019577494,-0.008066392,-0.89037257,0.192746691
49681,0.34724,0.90966,0.188035,0.04424,-0.036566,0.917066,-0.039877395,0.018062726,-0.00929438,-0.02737064,-0.902329199,0.171339323
49691,0.348951,0.927017,0.178506,0.020593,-0.043899,0.905545,-0.043239704,0.025768844,0.005215402,-0.044031024,-0.893519497,0.148482723
49701,0.343328,0.983733,0.177773,-0.008805,-0.046343,0.893418,-0.06973249,0.038833991,0.053962652,-0.069152658,-0.882090422,0.132496498
49760,0.338684,0.978844,0.119623,-0.210756,-0.076282,0.668456,-0.018714721,0.004040099,0.042490061,-0.200561952,-0.672829834,-0.064384607
49770,0.350417,0.967354,0.119623,-0.287447,-0.070783,0.567799,-0.016357134,0.013312347,0.035582311,-0.269838958,-0.572932543,-0.094693998
49780,0.360195,0.960754,0.128175,-0.35519,-0.070783,0.444707,-0.01929678,0.00338465,0.033844135,-0.326553999,-0.450524179,-0.139014153
49790,0.374862,0.961243,0.128663,-0.427407,-0.063451,0.317977,-0.003214775,-0.000945046,0.039736776,-0.391407809,-0.322518402,-0.174911271
49800,0.376573,0.963198,0.123044,-0.497706,-0.065284,0.179119,0.000409516,0.001334932,0.041487152,-0.450217316,-0.183044457,-0.218760085
49810,0.376573,0.981044,0.109117,-0.573757,-0.065895,0.073611,-0.000256763,0.014812097,0.056381375,-0.516779352,-0.075851051,-0.257183874
49820,0.370706,0.999379,0.095923,-0.654921,-0.063451,-0.051907,-0.004570289,0.028374503,0.069839495,-0.58824565,0.052216672,-0.294758132
49830,0.361173,1.013069,0.084684,-0.722026,-0.059174,-0.170148,-0.017588578,0.041409464,0.077915587,-0.64572924,0.170927273,-0.328010769
49891,0.339417,1.008424,0.014562,-1.063298,0.089303,-0.603094,0.015681479,0.018138389,0.063842096,-1.035841066,0.602367914,-0.257849213
49901,0.334039,1.042894,0.027267,-1.09014,0.122909,-0.629774,0.009371608,0.02768421,0.095033879,-1.072093918,0.627822003,-0.237868236
49911,0.33624,1.063429,0.053655,-1.086305,0.136352,-0.656454,0.01159665,0.024018863,0.116291202,-1.072081852,0.653070284,-0.231780031
49921,0.334773,1.070274,0.071735,-1.077358,0.143073,-0.661305,0.004667187,0.012026155,0.123627561,-1.063363877,0.659582716,-0.229569928
49931,0.334528,1.057073,0.071002,-1.035178,0.144295,-0.680102,0.008493046,0.014555333,0.110886855,-1.021717233,0.680505058,-0.21899779
49941,0.341617,1.030671,0.055854,-0.99875,0.132686,-0.689804,0.023445154,0.028361811,0.086623434,-0.982270471,0.691005936,-0.220436416
49951,0.352128,1.007936,0.038995,-0.805107,0.135741,-0.699506,0.040596117,0.045421734,0.066648274,-0.796514066,0.703572286,-0.162735751
49961,0.36484,1.000113,0.026046,-0.928451,0.13513,-0.71709,0.055278628,0.057762658,0.061894713,-0.913920809,0.720332734,-0.200920263
50021,0.395395,0.948041,-0.077549,-0.652365,0.140629,-0.756504,0.004884981,-0.002196086,0.030099075,-0.679771438,0.743006615,-0.059218863
50031,0.391973,0.934351,-0.083413,-0.617215,0.14124,-0.724367,0.013667672,0.002271726,0.016572863,-0.646486856,0.711289077,-0.041632175
50041,0.380729,0.925306,-0.092697,-0.596765,0.140018,-0.667368,0.01144146,0.009467869,0.004747705,-0.625349281,0.654866583,-0.034663943
50051,0.377306,0.927995,-0.100271,-0.561615,0.136963,-0.609157,0.014552414,0.013667406,0.006573515,-0.589964376,0.597200914,-0.023143595
50061,0.372417,0.951708,-0.109067,-0.516879,0.138185,-0.524266,0.009640007,0.017011884,0.027597108,-0.546393596,0.512365174,-0.007056944
50071,0.369484,0.981289,-0.115664,-0.468308,0.139407,-0.416939,0.006866456,0.01803292,0.054728569,-0.498487392,0.4050136,0.007689503
50081,0.36484,1.004024,-0.112488,-0.405678,0.137574,-0.297485,0.009242926,0.019213444,0.073951293,-0.435710663,0.285885709,0.020594902
50091,0.365573,1.013803,-0.099294,-0.360942,0.132075,-0.15984,0.007032401,0.005184397,0.082230616,-0.388219222,0.149076107,0.018273165
50152,0.408106,1.04265,-0.115664,0.028901,0.083804,0.410751,-0.014018034,-0.008418443,0.125513356,0.012810164,-0.41781226,0.042936899
50162,0.411773,1.043628,-0.118351,0.07875,0.073417,0.453803,-0.010943382,0.001852578,0.128095818,0.064919506,-0.459097094,0.050439043
50172,0.414951,1.039961,-0.113465,0.128599,0.056919,0.495035,-0.005133343,0.003962837,0.125404578,0.119350342,-0.497842112,0.052400898
50182,0.413973,1.026026,-0.111999,0.185478,0.041033,0.519896,-0.012983918,-0.007288283,0.111946524,0.178793052,-0.521131637,0.053221315
50192,0.412018,1.006958,-0.111999,0.237883,0.025757,0.519896,-0.003791112,-0.000994199,0.093732902,0.233501542,-0.519008041,0.06042581
