time,aX,aY,aZ,gX,gY,gZ,aX_T,aY_T,aZ_T,gX_T,gY_T,gZ_T
828480,0.879886,-0.501641,-0.013046,-0.032451,-0.002349,-0.019769,0.014239515,0.004805016,0.012811637,-0.01894135,-0.019822916,-0.026413554
828489.875,0.879642,-0.503108,-0.013535,-0.029895,-0.002349,-0.021588,-0.002417086,0.000867185,0.013441814,-0.017324193,-0.021542557,-0.024516549
828499.75,0.879642,-0.501152,-0.014268,-0.033729,-0.004182,-0.020982,0.003470991,-0.010705978,0.012422977,-0.020916214,-0.020597486,-0.027085688
828509.625,0.880864,-0.501885,-0.012558,-0.031173,-0.004182,-0.020376,-0.000594553,0.002166698,0.013884902,-0.019533516,-0.020281975,-0.024728722
828519.5,0.880864,-0.501641,-0.014024,-0.026699,-0.001127,-0.022801,0.007082349,-0.009227141,0.013719119,-0.014894764,-0.022563666,-0.022428092
828529.375,0.879886,-0.501885,-0.013291,-0.029895,-0.000516,-0.020376,0.000848875,0.002399924,0.013043976,-0.015776807,-0.020397462,-0.025380988
828539.25,0.879642,-0.502863,-0.01549,-0.036285,-0.000516,-0.015525,-0.006835711,-0.009918562,0.013279863,-0.018630716,-0.015241083,-0.031280967
828549.125,0.879153,-0.500419,-0.012802,-0.03309,-0.00296,-0.022801,-0.004881061,-0.007286289,0.011640326,-0.019369992,-0.022479808,-0.02725907
828612,0.878175,-0.501885,-0.013535,-0.03309,9.50E-05,-0.020376,2.31E-05,0.002401588,0.011561818,-0.016844007,-0.020417729,-0.028452316
828622,0.881598,-0.503108,-0.014512,-0.030534,0.000706,-0.025227,-0.007901726,-0.008212937,0.015092805,-0.01494533,-0.025023969,-0.02682654
828632,0.880131,-0.501397,-0.014268,-0.023504,-0.00296,-0.023408,0.000345779,0.002150456,0.013029299,-0.014802421,-0.023348097,-0.018571182
828642,0.881598,-0.501397,-0.014512,-0.031173,-0.004793,-0.025833,-0.004493906,-0.008702855,0.014262613,-0.020126707,-0.025468825,-0.024664292
828652,0.881598,-0.501152,-0.013779,-0.032451,-0.005404,-0.022195,0.00477023,0.0015197,0.014166237,-0.021425932,-0.022037216,-0.025103369
828662,0.878175,-0.503352,-0.013779,-0.038203,-0.001738,-0.020982,-0.012674552,0.008128447,0.012184623,-0.020653608,-0.02113714,-0.032084014
828672,0.879153,-0.499685,-0.017444,-0.036925,-0.004793,-0.019769,0.002821793,-0.003205995,0.011375869,-0.02301912,-0.01959079,-0.02938644
828682,0.875975,-0.502619,-0.013535,-0.027338,-0.003571,-0.022801,-0.001199804,0.000790888,0.010019401,-0.017275821,-0.022664775,-0.021630023
828745,0.878664,-0.500419,-0.014512,-0.03309,-0.002349,-0.019163,-0.009887041,0.007969876,0.011196779,-0.018660807,-0.019278294,-0.027346081
828755,0.878909,-0.50213,-0.014757,-0.029895,-0.004793,-0.02462,-0.000814126,-0.000773621,0.012339901,-0.019633129,-0.024426853,-0.023252901
828765,0.881598,-0.502619,-0.014024,-0.036285,-0.004793,-0.019769,-0.001908669,0.011531657,0.014840354,-0.022618028,-0.019891388,-0.028690503
828775,0.880131,-0.501641,-0.015245,-0.033729,-0.001127,-0.021588,-0.00123409,-0.001020683,0.013165394,-0.018240407,-0.021498912,-0.028461231
828785,0.878175,-0.499441,-0.013779,-0.031812,-0.004793,-0.023408,0.003192386,-0.010665759,0.010296271,-0.020619363,-0.022928841,-0.025140024
828795,0.882575,-0.502619,-0.011825,-0.03309,-0.003571,-0.018557,-0.000496911,0.002759635,0.015724597,-0.019981632,-0.018394518,-0.026728982
828805,0.881842,-0.50213,-0.013535,-0.024143,9.50E-05,-0.02462,0.001064293,-0.010262027,0.014818508,-0.012579134,-0.024345308,-0.020931059
828815,0.88062,-0.501152,-0.013046,-0.033729,-0.003571,-0.016738,0.001320918,-0.009785074,0.013270752,-0.020293402,-0.016265142,-0.027462358
828877,0.880131,-0.502619,-0.012313,-0.029895,-0.001127,-0.020982,4.23E-05,0.002612039,0.013608022,-0.016399821,-0.020898875,-0.025090006
828887,0.88062,-0.503108,-0.014757,-0.027977,-0.005404,-0.020982,-0.003161807,-0.010938394,0.014247193,-0.019103509,-0.020524586,-0.021586046
828897,0.876464,-0.49993,-0.012558,-0.034368,-0.003571,-0.022195,-0.002746996,0.002795747,0.009089436,-0.020694486,-0.02203129,-0.027800899
828907,0.883553,-0.501152,-0.011825,-0.031812,-0.003571,-0.026439,-0.003772404,-0.007513922,0.015819064,-0.019475576,-0.025990063,-0.025864931
828917,0.884775,-0.500419,-0.012069,-0.034368,-0.002349,-0.025227,0.002546143,0.003145479,0.016550668,-0.019777487,-0.025086832,-0.028329854
828927,0.884775,-0.502374,-0.012802,-0.030534,-0.004793,-0.031897,0.000244974,-0.008919946,0.01749236,-0.020194072,-0.031405806,-0.024053927
828937,0.882331,-0.501885,-0.012802,-0.029895,-0.001127,-0.037354,-0.00163243,0.002740264,0.015160216,-0.016837284,-0.037252005,-0.024881649
828947,0.881842,-0.500419,-0.011825,-0.03309,-0.00296,-0.034322,-0.000569808,0.003668317,0.013997307,-0.019916021,-0.034155689,-0.026803926
829010,0.876464,-0.503841,-0.014268,-0.029895,9.50E-05,-0.029471,0.008624404,-0.002269574,0.011023709,-0.015924383,-0.029318346,-0.025477608
829019.875,0.876709,-0.501397,-0.014512,-0.036925,-0.004182,-0.025833,-0.005024731,-0.004553307,0.010040712,-0.02259976,-0.02544938,-0.029830665
829029.75,0.867909,-0.49993,-0.010848,-0.030534,-0.001738,-0.026439,0.006138184,0.003724337,0.001629756,-0.017709372,-0.026284174,-0.025097547
829039.625,0.881353,-0.50653,-0.012313,-0.031173,0.00315,-0.024014,-0.009103063,0.003427047,0.016569108,-0.013293381,-0.024047771,-0.028343277
829049.5,0.87622,-0.505064,-0.015001,-0.031812,-0.005404,-0.02462,0.002913362,-0.005311286,0.011454134,-0.021404954,-0.024206617,-0.024560509
829059.375,0.879642,-0.506286,-0.011336,-0.026699,-0.001738,-0.025833,-0.004455428,0.008490925,0.014954245,-0.015539179,-0.025785671,-0.021836534
829069.25,0.875242,-0.503597,-0.014268,-0.036925,-0.001738,-0.017344,0.000437695,-0.005152692,0.009868967,-0.020487875,-0.016984947,-0.030968519
829079.125,0.872553,-0.502374,-0.00987,-0.035646,-0.004182,-0.016738,0.000293408,-0.000774704,0.006888824,-0.021946418,-0.016311426,-0.028645754
829141,0.872553,-0.504086,-0.013046,-0.035007,-0.005404,0.0154,-0.011107618,0.00533965,0.007705185,-0.021392144,0.015592705,-0.028126446
829151,0.876953,-0.500908,-0.012313,-0.033729,-0.006015,0.024495,0.009670095,0.00286686,0.009953102,-0.021417134,0.024790849,-0.026467921
829161,0.880131,-0.503108,-0.016956,-0.031173,-0.003571,0.022676,-0.005887822,-0.005009628,0.013891503,-0.017690696,0.02296674,-0.025656911
829171,0.877931,-0.500663,-0.012802,-0.031173,-0.005404,0.02207,0.011071409,-0.004241599,0.0106679,-0.019682922,0.022509233,-0.024371317
829181,0.880864,-0.500908,-0.011092,-0.03309,-0.003571,0.025102,-0.002072241,0.002712229,0.013381267,-0.018577391,0.0253597,-0.027378399
829191,0.885753,-0.498463,-0.014268,-0.027977,-0.004182,0.021464,-0.013087954,0.003089792,0.016388938,-0.016357314,0.02164649,-0.022907918
829201,0.890642,-0.496752,-0.015001,-0.038203,-0.000516,0.014794,0.006796337,-0.000220386,0.019894364,-0.01878929,0.014945409,-0.033199326
829211,0.882331,-0.499685,-0.014757,-0.028616,-0.003571,0.010549,0.000156837,0.000161289,0.014105917,-0.016860408,0.010778761,-0.023290639
829273,0.868153,-0.508242,-0.013779,-0.035007,-0.001738,0.054207,0.001291129,-0.002986667,0.006070989,-0.0174063,0.054503383,-0.029888317
829283,0.866686,-0.503108,-0.011825,-0.029895,-0.004793,0.067547,-0.007735765,0.005112953,0.002155741,-0.016671038,0.067751959,-0.024719013
829293,0.87182,-0.501641,-0.014512,-0.033729,-0.001738,0.086951,-0.008552488,-0.008208945,0.00587468,-0.01510449,0.087348959,-0.029037152
829303,0.877686,-0.499441,-0.015245,-0.02606,-0.001127,0.089377,-0.007723313,0.001965243,0.009922237,-0.010607629,0.089412976,-0.023694719
829313,0.886731,-0.495774,-0.014512,-0.028616,-0.001127,0.099685,-0.015195769,0.000998804,0.015904727,-0.011082521,0.09976179,-0.026115279
829323,0.896753,-0.485506,-0.015245,-0.027977,0.00315,0.090589,-0.016153069,0.003956358,0.019724401,-0.006912077,0.090398228,-0.027917475
829333,0.907264,-0.48135,-0.016711,-0.034368,-0.004793,0.071792,-0.007549657,-0.009146902,0.027114591,-0.017552763,0.072268246,-0.028764991
829343,0.911909,-0.474994,-0.011581,-0.038842,-0.002349,0.057846,0.000413903,-0.00429223,0.02825719,-0.017958313,0.058291919,-0.033762845
829405,0.917531,-0.473527,-0.013046,-0.028616,-0.004182,-0.180456,0.001050898,0.005997751,0.032581269,-0.023420201,-0.180127209,-0.020159748
829415,0.921442,-0.479639,-0.014757,-0.033729,0.001928,-0.222296,-0.003447308,-0.006880782,0.038877986,-0.021908758,-0.221866564,-0.029190898
829425,0.92022,-0.477683,-0.011092,-0.039481,-0.005404,-0.262316,0.003348362,0.006799851,0.036846893,-0.032747138,-0.26181225,-0.027921446
829435,0.917775,-0.479639,-0.013779,-0.030534,0.003761,-0.298091,0.013244915,0.006164705,0.035538966,-0.022158614,-0.297984547,-0.022779821
829445,0.908975,-0.485262,-0.019155,-0.031173,0.001928,-0.333867,0.007751146,-0.009231366,0.030502972,-0.025553861,-0.333414132,-0.024993268
829455,0.90702,-0.499441,-0.00816,-0.031812,0.003761,-0.361153,0.004351283,0.009020101,0.035419182,-0.025583167,-0.360897431,-0.023583548
829465,0.888198,-0.497485,-0.016711,-0.029895,0.007427,-0.384195,0.008659462,-0.001531072,0.018130119,-0.02267512,-0.384024296,-0.023787561
829475,0.881353,-0.507264,-0.01549,-0.029895,0.008038,-0.392078,-0.003174151,0.000114227,0.017020023,-0.022438179,-0.391925268,-0.023970621
829537,0.837353,-0.542222,-0.017444,-0.035646,0.001928,-0.356909,-0.042779587,-0.000406216,-0.003185685,-0.029696066,-0.356499447,-0.026166327
829547,0.836375,-0.5454,-0.015734,-0.029255,0.00315,-0.332654,-0.033000366,0.001993671,-0.001932437,-0.024851191,-0.33235453,-0.021150548
829557,0.835153,-0.545645,-0.017933,-0.032451,-0.002349,-0.30173,-0.020861678,-0.001104722,-0.002455935,-0.030415384,-0.30118979,-0.02142878
829567,0.830997,-0.550534,-0.015001,-0.033729,0.003761,-0.284145,-0.013687625,0.001704411,-0.003165775,-0.025681196,-0.283841015,-0.025786163
829577,0.833197,-0.552979,-0.015978,-0.036925,-0.002349,-0.253827,-0.001289025,0.003055935,0.000123648,-0.031799973,-0.253331851,-0.024674978
829587,0.831975,-0.551023,-0.018422,-0.031812,-0.004182,-0.238668,0.002753179,-0.009977862,-0.001981473,-0.03006227,-0.237906988,-0.022100496
829597,0.833442,-0.556157,-0.011825,-0.03309,9.50E-05,-0.217445,0.002872941,0.007590321,0.002003064,-0.026559265,-0.217093287,-0.023289382
829607,0.831242,-0.557624,-0.014757,-0.032451,0.001928,-0.191977,0.000319447,0.004733417,0.001050973,-0.023723245,-0.191728536,-0.024276106
829669,0.833931,-0.560313,-0.0172,-0.031173,-0.004793,-0.078587,-0.012027031,-0.005635316,0.004744248,-0.024076514,-0.07798126,-0.022580744
829679,0.835397,-0.556401,-0.016711,-0.029255,-0.001127,-0.065853,0.001151227,0.003709401,0.003859748,-0.019695301,-0.065619244,-0.022359621
829689,0.840286,-0.555668,-0.01549,-0.02606,-0.004182,-0.062821,-0.010492643,0.0003103,0.007460786,-0.020084559,-0.062383977,-0.018653167
829699,0.845175,-0.553223,-0.0172,-0.031812,-0.001738,-0.054939,0.001764547,-0.011405819,0.010217354,-0.021056326,-0.054310731,-0.025304018
829709,0.848597,-0.55029,-0.013779,-0.032451,-0.001738,-0.053726,0.002715402,0.003321778,0.011487719,-0.021280599,-0.053374586,-0.025315229
829719,0.848353,-0.554446,-0.01549,-0.024143,-0.004793,-0.054332,-0.002974218,-0.009487282,0.013535527,-0.019299921,-0.053716982,-0.017315382
829729,0.84982,-0.553957,-0.015001,-0.029255,9.50E-05,-0.063428,-0.006887448,0.002255839,0.014512146,-0.018243849,-0.063158712,-0.02360327
829739,0.853242,-0.550779,-0.012802,-0.035007,-0.000516,-0.061609,-0.002279986,0.004293013,0.015637573,-0.021793917,-0.061273303,-0.028143076
829801,0.841508,-0.558846,-0.014512,-0.028616,-0.001738,-0.071917,-3.59E-05,0.002118526,0.010272574,-0.020127604,-0.071542213,-0.021691986
829811,0.843953,-0.56398,-0.016467,-0.032451,0.000706,-0.068279,0.012407166,0.001785877,0.015107946,-0.020482542,-0.068011371,-0.025894141
829821,0.837597,-0.560068,-0.016956,-0.031173,-0.007237,-0.06464,-0.003889148,-0.001957412,0.007726872,-0.025843571,-0.063972982,-0.021024441
829831,0.845175,-0.559091,-0.014268,-0.028616,-0.002349,-0.062821,-0.012588349,0.007665697,0.013355749,-0.020008002,-0.062529535,-0.02146179
829841,0.844686,-0.558113,-0.015734,-0.026699,-0.001127,-0.061002,-0.000154368,-0.001092903,0.012536863,-0.018127785,-0.06062387,-0.02077211
829851,0.847375,-0.559335,-0.015001,-0.031812,-0.004793,-0.062821,-0.009321225,0.009625333,0.015354879,-0.023875508,-0.062452429,-0.022607708
829861,0.850309,-0.559579,-0.016467,-0.037564,-0.004182,-0.065247,0.002738897,-6.83E-05,0.018046025,-0.026895663,-0.064660512,-0.02795274
829871,0.843953,-0.561291,-0.015245,-0.030534,-0.001738,-0.068885,-0.002145673,0.001284359,0.013671746,-0.021128453,-0.068464525,-0.023381323
829934,0.829775,-0.567891,-0.016956,-0.034368,-0.002349,-0.067066,-0.000357319,-0.00239049,0.005638306,-0.024093335,-0.066517199,-0.026067203
829944,0.828064,-0.570091,-0.014024,-0.036285,-0.001738,-0.056758,-0.001062152,0.012032465,0.005357897,-0.024317894,-0.05653132,-0.027458011
829954,0.831731,-0.569358,-0.016711,-0.035007,-0.002349,-0.04463,-0.009982665,0.001495391,0.008028946,-0.023302136,-0.044178825,-0.02698308
829964,0.840042,-0.562269,-0.016956,-0.030534,-0.004793,-0.036141,-0.0160835,0.00060995,0.010863712,-0.022127084,-0.035618021,-0.022432535
829974,0.859109,-0.556157,-0.016956,-0.02606,-0.000516,-0.046449,-0.017142287,0.003518258,0.023406152,-0.016219744,-0.046210068,-0.020939173
829984,0.87402,-0.55029,-0.019155,-0.031812,-0.002349,-0.06464,0.002895545,-0.009126208,0.03295948,-0.02178705,-0.064012467,-0.02497157
829994,0.870353,-0.549556,-0.013291,-0.035007,-0.002349,-0.096778,0.01160021,0.005251209,0.029339911,-0.02515113,-0.096289061,-0.026321598
830004,0.861553,-0.552734,-0.014512,-0.024782,-0.000516,-0.131341,0.004101705,0.004247177,0.023701217,-0.019544237,-0.13097895,-0.018094459
830067,0.824397,-0.576203,-0.016223,-0.026699,-0.000516,-0.198041,-0.022046819,0.002173046,0.005690167,-0.023747765,-0.197553848,-0.018489496
830076.875,0.831486,-0.575225,-0.015978,-0.032451,-0.004793,-0.191371,-0.003227594,0.00175547,0.011184734,-0.030523838,-0.190627123,-0.020700126
830086.75,0.831731,-0.577914,-0.017444,-0.023504,-0.00296,-0.190158,0.008640556,-0.00087306,0.012911605,-0.024138727,-0.189563389,-0.014293638
830096.625,0.826353,-0.58207,-0.016956,-0.031812,0.001317,-0.190765,0.013386732,-0.006674559,0.010805875,-0.025787996,-0.19010728,-0.024479064
830106.5,0.824642,-0.585982,-0.015978,-0.034368,-0.00296,-0.184095,0.000367758,0.004996084,0.011750727,-0.030299491,-0.183460547,-0.022473512
830116.375,0.812664,-0.584759,-0.015245,-0.034368,-0.002349,-0.17318,0.007356167,0.001244674,0.001270499,-0.029663641,-0.172476098,-0.023453224
830126.25,0.812175,-0.590871,-0.017689,-0.031812,-0.004182,-0.161053,0.014355655,-0.006646154,0.004400027,-0.029388399,-0.160187584,-0.021067068
830136.125,0.803619,-0.595271,-0.014268,-0.02606,-0.005404,-0.13983,0.005855887,-0.002903149,0.000155946,-0.025996552,-0.139030924,-0.015979275
830198,0.816819,-0.590382,-0.015001,-0.033729,-0.010293,0.049963,0.002847496,-0.000157246,0.007948948,-0.025965971,0.05082448,-0.021966639
830208,0.813886,-0.592338,-0.014512,-0.031173,-0.006015,0.059058,0.004062482,0.011640623,0.006644584,-0.020696695,0.059438323,-0.023119604
830218,0.804108,-0.587938,-0.024041,-0.035007,-0.004182,0.0821,0.01792315,-0.001103058,-0.003748886,-0.020909259,0.082467237,-0.027301041
830228,0.796042,-0.594538,-0.02453,-0.039481,-0.001738,0.111812,0.021154346,-0.008778418,-0.006402771,-0.020775496,0.112309309,-0.031916942
830238,0.778197,-0.604072,-0.0172,-0.036925,-0.004182,0.151226,0.018649686,-0.006761318,-0.01491327,-0.019793906,0.151934298,-0.027828368
830248,0.757175,-0.612629,-0.009626,-0.042037,0.001317,0.225809,0.01735886,0.003195129,-0.026136871,-0.016037168,0.226254015,-0.036200528
830258,0.74373,-0.620207,-0.013291,-0.044594,0.005594,0.295541,0.009610237,0.010841528,-0.03162105,-0.011507664,0.295296113,-0.045079706
830268,0.734197,-0.618496,-0.022331,-0.04715,0.004372,0.403474,0.004333631,0.001817812,-0.039760902,-0.009297957,0.403173509,-0.048971168
830330,0.942709,-0.631941,-0.069486,-0.090608,-0.057341,0.883716,0.120074764,-0.041603056,0.129924434,-0.062171606,0.886085735,-0.058638985
830339.875,0.962753,-0.635364,-0.056048,-0.107863,-0.069561,0.911609,0.123538416,-0.024524206,0.14798038,-0.080206445,0.914552542,-0.068298624
830349.75,0.997465,-0.649543,-0.047741,-0.139178,-0.085448,0.927981,0.127302408,-0.012962461,0.184376549,-0.110244131,0.931837269,-0.085709673
830359.625,1.044398,-0.669834,-0.042854,-0.157712,-0.094002,0.918279,0.13304194,-0.005559311,0.234321746,-0.127518818,0.922707513,-0.096413533
830369.5,1.081554,-0.682546,-0.034303,-0.174328,-0.11111,0.883716,0.137373411,0.005667139,0.271967461,-0.151242197,0.889270287,-0.100069015
830379.375,1.116999,-0.688168,-0.036258,-0.205643,-0.132496,0.821867,0.143820911,0.007256853,0.304545702,-0.188654439,0.828846308,-0.112840151
830389.25,1.146332,-0.694525,-0.044809,-0.22929,-0.153271,0.722423,0.143343803,0.002995338,0.333376713,-0.222755619,0.730833331,-0.119262193
830399.125,1.184466,-0.702592,-0.048718,-0.244628,-0.186266,0.588416,0.159904749,-0.000325389,0.368721678,-0.265275025,0.599322307,-0.105892419
830461,1.177377,-0.664455,0.008454,-0.332183,-0.331688,-0.438162,0.162464448,0.054718111,0.341044275,-0.486911188,-0.415133017,-0.054133965
830471,1.16931,-0.670078,0.013829,-0.340491,-0.342686,-0.598243,0.124934944,0.061605817,0.34055124,-0.508414353,-0.573933504,-0.058117826
830481,1.156599,-0.6669,0.002346,-0.363498,-0.368349,-0.752866,0.08904762,0.05132254,0.331134433,-0.550092974,-0.72623482,-0.067821109
830491,1.139732,-0.651499,-0.005472,-0.380114,-0.380569,-0.922042,0.060496297,0.043849183,0.310682024,-0.577831671,-0.893890266,-0.080942071
830501,1.121887,-0.635608,-0.011336,-0.40376,-0.409898,-1.060294,0.033848054,0.035786894,0.288537963,-0.622205767,-1.029115805,-0.095092147
830511,1.090354,-0.619474,-0.007183,-0.440827,-0.423952,-1.228257,0.006994792,0.034886208,0.25355714,-0.662619112,-1.194456904,-0.129952366
830521,1.062243,-0.605539,0.004056,-0.481729,-0.442282,-1.378636,-0.015157704,0.04073544,0.221951305,-0.707880556,-1.341236047,-0.168239117
830531,1.038532,-0.586226,0.014562,-0.521991,-0.445948,-1.514462,-0.009074825,0.049987151,0.191570653,-0.73929874,-1.47623398,-0.197762437
830593,0.903109,-0.672523,0.054388,-0.752702,-0.478943,-1.716382,-0.152615338,0.098426783,0.112596887,-0.897536565,-1.670753705,-0.3806889
830603,0.877442,-0.676923,0.074667,-0.786573,-0.479554,-1.653926,-0.17177009,0.121169888,0.090649928,-0.915321345,-1.604585113,-0.414287084
830613,0.848353,-0.681323,0.09006,-0.817889,-0.469167,-1.581768,-0.191916189,0.139136611,0.065750358,-0.921339994,-1.529295413,-0.451041298
830623,0.824153,-0.684013,0.110339,-0.847926,-0.468556,-1.486569,-0.206795279,0.162014956,0.044156843,-0.933313335,-1.429909171,-0.48238636
830633,0.821708,-0.698925,0.122555,-0.881797,-0.458779,-1.416837,-0.221996473,0.177847551,0.047763206,-0.940885063,-1.356248697,-0.520380606
830643,0.83442,-0.709437,0.133305,-0.918864,-0.452669,-1.331339,-0.226195272,0.191574779,0.062761789,-0.951022934,-1.26615772,-0.56043181
830653,0.847375,-0.723372,0.15505,-0.94315,-0.450225,-1.26949,-0.2313424,0.21675855,0.079281413,-0.960527195,-1.198998678,-0.586198781
830663,0.862531,-0.747329,0.16629,-0.97766,-0.436172,-1.203396,-0.244334974,0.230219762,0.10336395,-0.957339818,-1.134203748,-0.625547243
830725,0.843953,-0.750752,0.297982,-1.061381,-0.179544,-0.928106,-0.241628431,0.361367178,0.084300681,-0.747567457,-0.878098888,-0.830801819
830734.875,0.835642,-0.77202,0.296027,-1.063298,-0.137995,-0.920829,-0.263402035,0.361330861,0.087199979,-0.716801968,-0.867134627,-0.855478686
830744.75,0.83002,-0.77911,0.305067,-1.047321,-0.097668,-0.918404,-0.270123329,0.370347677,0.085765837,-0.679337242,-0.861626876,-0.863704961
830754.625,0.818042,-0.775932,0.307755,-1.02687,-0.065284,-0.928106,-0.27156873,0.371688551,0.074278534,-0.648266223,-0.867600299,-0.864364142
830764.5,0.813886,-0.77202,0.312641,-1.001945,-0.031067,-0.938414,-0.268471306,0.374632071,0.06945952,-0.613882378,-0.874958791,-0.862018165
830774.375,0.797997,-0.773732,0.317772,-0.994916,0.001928,-0.957211,-0.275425754,0.37908411,0.056823238,-0.590086112,-0.89012519,-0.874979994
830784.25,0.771841,-0.773732,0.315085,-0.967435,0.024535,-0.98086,-0.2868208,0.376170851,0.034363386,-0.567180733,-0.909965334,-0.86538309
830794.125,0.76353,-0.776665,0.322903,-0.94954,0.055697,-1.008146,-0.291850181,0.384850751,0.028185928,-0.53615019,-0.942645604,-0.863162189
830855,0.689708,-0.775443,0.323147,-0.825558,0.22556,-1.489601,-0.32819493,0.387273101,-0.038885757,-0.413957454,-1.443103113,-0.835121007
830865,0.681152,-0.76982,0.328523,-0.80958,0.252445,-1.584194,-0.331656271,0.390026669,-0.050051814,-0.404210242,-1.533802926,-0.84432313
830875,0.666241,-0.755152,0.332187,-0.792964,0.278108,-1.70668,-0.330687574,0.390407959,-0.071179689,-0.401320189,-1.65191519,-0.85382135
830885,0.640819,-0.743173,0.330233,-0.780822,0.30377,-1.829166,-0.337845743,0.387010811,-0.101060726,-0.401712907,-1.769625095,-0.868827501
830895,0.625908,-0.735595,0.335852,-0.773792,0.322101,-1.932854,-0.343308291,0.391298228,-0.119839499,-0.408169636,-1.86727534,-0.886063232
830905,0.592174,-0.734128,0.329011,-0.752063,0.336765,-2.058979,-0.364077767,0.387119338,-0.154158288,-0.418059643,-1.987924705,-0.889823268
830915,0.556974,-0.729972,0.31875,-0.73289,0.347764,-2.167518,-0.38325427,0.38033188,-0.191826414,-0.430470042,-2.090712894,-0.894324869
830925,0.535952,-0.739751,0.310931,-0.727777,0.345931,-2.269387,-0.401575373,0.37704921,-0.207708836,-0.452463794,-2.190317011,-0.892878985
830986,0.334284,-0.75393,0.364683,-0.655561,0.295216,-2.599857,-0.484742451,0.457572952,-0.392709561,-0.546017165,-2.505654668,-0.8364981
830996,0.317417,-0.76762,0.366393,-0.48109,0.281774,-2.620473,-0.508885549,0.46676426,-0.410589726,-0.510460441,-2.539334921,-0.684785524
831006,0.292239,-0.78131,0.367859,-0.631914,0.275664,-2.625931,-0.53501616,0.477349592,-0.436915399,-0.574789941,-2.517647322,-0.83778759
831016,0.271217,-0.793533,0.365416,-0.613381,0.259166,-2.619261,-0.558463453,0.483856832,-0.460756758,-0.589190838,-2.50424362,-0.827979168
831026,0.247017,-0.803312,0.367859,-0.602516,0.238392,-2.603495,-0.578553045,0.49554113,-0.488763094,-0.60787422,-2.480189276,-0.822917116
831036,0.220617,-0.804779,0.374945,-0.595486,0.209063,-2.588336,-0.589310814,0.5106337,-0.521574622,-0.635893989,-2.454261254,-0.818556471
831046,0.187128,-0.80649,0.377144,-0.590374,0.186455,-2.570145,-0.602287508,0.522400011,-0.56178933,-0.657201177,-2.426596316,-0.817721946
831056,0.167083,-0.810157,0.383496,-0.577592,0.160181,-2.558624,-0.609149796,0.532324549,-0.579396414,-0.675313403,-2.411302679,-0.797118839
831117,0.044127,-0.819691,0.40573,-0.616576,0.048365,-2.454936,-0.643329833,0.579582215,-0.702227366,-0.768809335,-2.274036055,-0.804305992
831127,0.033371,-0.837782,0.425765,-0.647252,0.03309,-2.43917,-0.656216326,0.610632748,-0.715788954,-0.793706809,-2.24440411,-0.838009595
831137,0.033616,-0.86125,0.44018,-0.686237,0.023313,-2.396118,-0.672309224,0.636535568,-0.718108517,-0.807368475,-2.188217917,-0.87903622
831147,0.030438,-0.871273,0.460459,-0.72586,0.017814,-2.354279,-0.674083558,0.66553829,-0.726621611,-0.816634093,-2.133828269,-0.921794643
831157,0.009905,-0.867606,0.474386,-0.760371,0.011704,-2.307589,-0.667181349,0.687758605,-0.755587426,-0.823168946,-2.07525706,-0.958628736
831167,-0.016251,-0.863939,0.48025,-0.795521,-0.000516,-2.269994,-0.662386433,0.70331426,-0.790505325,-0.837480664,-2.02330768,-0.995278282
831177,-0.045584,-0.846582,0.47292,-0.826197,-0.010293,-2.225123,-0.647997897,0.703129084,-0.832248615,-0.846217726,-1.96551695,-1.026907236
831187,-0.086162,-0.829959,0.45997,-0.876685,-0.018236,-2.176007,-0.642827803,0.69232773,-0.876375723,-0.845761281,-1.909013768,-1.069705518
831249,-0.221341,-0.829714,0.508347,-1.109312,-0.155715,-1.878888,-0.638317296,0.766982418,-1.011082966,-0.923732135,-1.54347968,-1.244760946
831258.875,-0.219385,-0.825803,0.504438,-1.146379,-0.18871,-1.847963,-0.625742721,0.769844328,-1.017995172,-0.957286383,-1.489692145,-1.276394774
831268.75,-0.212296,-0.809179,0.509325,-1.168747,-0.216817,-1.847357,-0.597291965,0.775914311,-1.021248341,-0.993797566,-1.467315081,-1.29809857
831278.625,-0.211319,-0.788155,0.522762,-1.210927,-0.239424,-1.85342,-0.561875133,0.788989183,-1.030274358,-1.029499575,-1.449142944,-1.341249082
831288.5,-0.212785,-0.769087,0.52374,-1.261415,-0.258366,-1.87525,-0.532461113,0.791028444,-1.042837143,-1.067217004,-1.44502791,-1.395501903
831298.375,-0.247741,-0.737795,0.533024,-1.300399,-0.269975,-1.915876,-0.490938887,0.800524816,-1.089278656,-1.103265059,-1.461869106,-1.442307122
831308.25,-0.289541,-0.711637,0.555747,-1.341301,-0.27303,-1.948014,-0.44764754,0.824087302,-1.140027629,-1.128296452,-1.47304315,-1.49180538
831318.125,-0.309097,-0.693302,0.566986,-1.391788,-0.274252,-1.964992,-0.427811455,0.830012413,-1.160432219,-1.139881896,-1.480731684,-1.543238316
831381,-0.417631,-0.606517,0.578713,-1.583514,-0.450225,-2.1372,-0.333641341,0.826588413,-1.287440969,-1.388428078,-1.529643109,-1.735022308
831390.875,-0.433031,-0.573514,0.584333,-1.621221,-0.467945,-2.159635,-0.283385875,0.8233027,-1.315823243,-1.420219191,-1.525603297,-1.779568885
831400.75,-0.460409,-0.535133,0.577247,-1.655092,-0.47711,-2.17722,-0.233373766,0.806003281,-1.35700598,-1.441673595,-1.521016939,-1.820806175
831410.625,-0.498787,-0.514598,0.574804,-1.707497,-0.49483,-2.186922,-0.196535265,0.800160318,-1.406345379,-1.466674708,-1.503101139,-1.879516649
831420.5,-0.493898,-0.516798,0.595083,-1.742647,-0.510716,-2.202081,-0.167729032,0.818519576,-1.408695313,-1.491461704,-1.492414712,-1.922251399
831430.375,-0.487053,-0.518754,0.622448,-1.783549,-0.532713,-2.203294,-0.134276699,0.841971565,-1.408437881,-1.513630128,-1.465788176,-1.96970137
831440.25,-0.494142,-0.51142,0.637596,-1.811029,-0.547988,-2.208751,-0.097242904,0.850591174,-1.423431061,-1.530625405,-1.447316573,-2.005282642
831450.125,-0.523475,-0.47475,0.650546,-1.846818,-0.555931,-2.215421,-0.058058489,0.845582787,-1.451932184,-1.539560688,-1.445762189,-2.041423717
831513,-0.535209,-0.284066,0.778573,-2.250082,-0.452058,-2.469488,0.201494014,0.849850625,-1.458772449,-1.561094961,-1.663921789,-2.481923292
831522.875,-0.525187,-0.261576,0.782971,-2.305043,-0.402566,-2.508902,0.252523692,0.830439878,-1.451539998,-1.531362095,-1.703843372,-2.553765799
831532.75,-0.530076,-0.223928,0.76318,-2.344028,-0.361017,-2.559837,0.303518932,0.781334166,-1.459305135,-1.515083241,-1.752309038,-2.609885402
831542.625,-0.572854,-0.160122,0.738748,-2.396433,-0.338409,-2.615623,0.376368425,0.712145009,-1.500745108,-1.514431352,-1.794137098,-2.680758327
831552.5,-0.582387,-0.111474,0.766356,-2.45459,-0.308469,-2.691418,0.463519677,0.68794762,-1.500779563,-1.518262836,-1.855931379,-2.75940079
831562.375,-0.558676,-0.07407,0.806426,-2.527446,-0.27914,-2.747204,0.544288048,0.675626576,-1.463904497,-1.508732594,-1.900320992,-2.85053299
831572.25,-0.573098,-0.051824,0.829149,-2.620113,-0.240035,-2.7563,0.608829674,0.656763779,-1.46540614,-1.4579423,-1.915937604,-2.953537873
831582.125,-0.609276,-0.018332,0.841609,-2.698721,-0.206429,-2.739928,0.648550722,0.643998308,-1.494476649,-1.407446735,-1.925881874,-3.02373711
831645,-0.54572,0.373791,0.749987,-3.461151,-0.107444,-2.960645,0.888529879,0.278033268,-1.364996831,-1.306513318,-2.148980298,-3.798872978
831654.875,-0.575054,0.412417,0.731662,-3.60175,-0.073838,-3.03826,0.929606236,0.196448692,-1.365163422,-1.279206966,-2.223193654,-3.953494461
831664.75,-0.612943,0.423418,0.715536,-3.708478,-0.048176,-3.0516,0.952775692,0.132589551,-1.376313941,-1.220470259,-2.247026644,-4.065552382
831674.625,-0.674054,0.466688,0.737037,-3.831183,-0.033511,-3.00309,1.027843175,0.064622715,-1.393360312,-1.117463791,-2.223918711,-4.183670154
831684.5,-0.692387,0.506292,0.751941,-3.933436,-0.009071,-2.86302,1.079653792,-0.006110778,-1.368044784,-0.9402921,-2.152258661,-4.26057719
831694.375,-0.650832,0.541006,0.732151,-4.024187,0.044088,-2.673227,1.076490288,-0.089338557,-1.292407514,-0.704501438,-2.081394536,-4.302748176
831704.25,-0.578476,0.566186,0.680109,-4.127079,0.119243,-2.508902,1.02337389,-0.176361262,-1.198373153,-0.465664201,-2.0583931,-4.346005512
831714.125,-0.495364,0.559096,0.614385,-4.200575,0.204786,-2.388235,0.937088234,-0.194722691,-1.139253273,-0.301683647,-2.073253747,-4.35901823
831776,-0.249208,0.706998,0.482449,-4.376324,1.159806,-1.94195,0.792587481,-0.386491494,-0.86909069,0.61390408,-2.651274327,-4.106384996
831785.875,-0.233074,0.688419,0.505171,-4.348843,1.293619,-1.838868,0.776712327,-0.387717908,-0.827272664,0.787269309,-2.717915977,-3.995054549
831795.75,-0.225252,0.659327,0.494176,-4.291325,1.43232,-1.716988,0.732519691,-0.395010986,-0.8075378,0.958554585,-2.783412698,-3.840422567
831805.625,-0.188096,0.61679,0.44922,-4.204409,1.545969,-1.602991,0.643171273,-0.395466175,-0.781949923,1.093211712,-2.832038286,-3.663482309
831815.5,-0.160718,0.56863,0.422588,-4.091291,1.637622,-1.481718,0.573201949,-0.379510414,-0.765133353,1.205682876,-2.858437644,-3.462891729
831825.375,-0.127963,0.538806,0.42381,-3.989676,1.699946,-1.380455,0.529506502,-0.364111269,-0.72917312,1.292379738,-2.873939721,-3.283780152
831835.25,-0.121607,0.535139,0.414037,-3.838213,1.768991,-1.288894,0.49619284,-0.379056359,-0.712428111,1.338224055,-2.891517368,-3.061166383
831845.125,-0.149963,0.56643,0.395712,-3.671411,1.837425,-1.142153,0.501925382,-0.420065228,-0.73253795,1.378954621,-2.868809572,-2.833428776
831913,-0.172452,0.51827,0.361262,-2.382373,2.41117,0.51929,0.46840208,-0.397731394,-0.773586777,2.149110661,-2.557115153,-0.775621972
831922.875,-0.166341,0.574498,0.415503,-2.145911,2.47716,0.781847,0.506832043,-0.435722839,-0.710816821,2.245220093,-2.481105371,-0.394516521
831932.75,-0.154607,0.597477,0.41648,-1.960576,2.542539,0.994681,0.493995339,-0.457923827,-0.682805968,2.317660274,-2.433327446,-0.071564709
831942.625,-0.144829,0.61239,0.402065,-1.743925,2.595086,1.134752,0.469894605,-0.4766361,-0.668834929,2.299579688,-2.391787901,0.233862666
831952.5,-0.143118,0.657127,0.394491,-1.571372,2.647023,1.262089,0.460743238,-0.521403013,-0.648181337,2.288915324,-2.362072923,0.500287432
831962.375,-0.183452,0.786694,0.375433,-1.410322,2.684906,1.354863,0.483494907,-0.654962894,-0.638408649,2.249674529,-2.331513252,0.73238828
831972.25,-0.282208,0.878858,0.35491,-1.248633,2.697126,1.419137,0.546388744,-0.760315451,-0.681607784,2.178151162,-2.286098731,0.936446988
831982.125,-0.369719,0.940952,0.34758,-1.11762,2.680629,1.456126,0.611558836,-0.83313072,-0.726533996,2.107097051,-2.241332568,1.044853848
832042,-0.478253,0.844388,0.277214,-0.128953,1.710333,1.18508,0.636744004,-0.770774009,-0.862053888,1.087359851,-1.256267602,1.259254827
832052,-0.53472,0.911616,0.279169,0.015481,1.488534,0.966788,0.693275693,-0.833333252,-0.859184357,0.798275424,-1.082470274,1.158303337
832062,-0.555742,0.925062,0.284788,0.112622,1.280788,0.732125,0.717982275,-0.840104273,-0.843733105,0.535998861,-0.937842201,1.011071639
832072,-0.561609,0.916994,0.296516,0.216154,1.119479,0.362848,0.731616462,-0.822682141,-0.820735249,0.195529864,-0.887580137,0.778192796
832082,-0.556965,0.933129,0.307755,0.290927,0.926397,0.257946,0.737562119,-0.826970922,-0.781427134,0.040959676,-0.725453893,0.693847976
832092,-0.553787,0.950975,0.316795,0.349723,0.755923,-0.000972,0.741210053,-0.834128794,-0.742649313,-0.189117259,-0.64593406,0.490643002
832102,-0.567231,0.965887,0.344404,0.368896,0.592171,-0.216838,0.766421545,-0.834510442,-0.70084593,-0.356040564,-0.568068551,0.290349288
832112,-0.565765,0.950242,0.365905,0.388068,0.309881,-0.41512,0.776047125,-0.811822296,-0.690756112,-0.519379902,-0.383203482,0.048448217
832172,-0.508075,0.915772,0.352711,0.274311,-0.299915,-1.084548,0.708057675,-0.776327083,-0.657722042,-0.881577793,-0.105876419,-0.743673769
832182,-0.510275,0.91186,0.354421,0.185478,-0.3989,-1.097888,0.699747625,-0.772397201,-0.637730341,-0.819473573,-0.044615838,-0.851677081
832192,-0.507587,0.914794,0.35662,0.093449,-0.48933,-1.086974,0.687792785,-0.773613743,-0.6125296,-0.737387462,0.01405255,-0.941143612
832202,-0.49512,0.911372,0.351734,0.026984,-0.556542,-1.081516,0.662696346,-0.770007515,-0.590877129,-0.675420972,0.05186304,-1.010574454
832212,-0.469209,0.883747,0.354421,-0.037564,-0.631698,-1.077878,0.62931329,-0.738501948,-0.569465742,-0.614811402,0.093363795,-1.084234542
832222,-0.439386,0.878369,0.361507,-0.085495,-0.69952,-1.079697,0.596176222,-0.722936498,-0.533935411,-0.568667215,0.12744829,-1.150112068
832232,-0.438653,0.883258,0.375433,-0.127036,-0.758789,-1.085155,0.590823622,-0.720188147,-0.5042505,-0.527971624,0.15185427,-1.211464614
832242,-0.447209,0.886192,0.377877,-0.15899,-0.80706,-1.074846,0.599301009,-0.724038254,-0.505297983,-0.496746583,0.188901873,-1.2447797
832303,-0.482653,1.051695,0.336585,-0.48812,-1.021527,-1.112441,0.590489513,-0.895024429,-0.44994622,-0.237922312,0.245975122,-1.54990088
832313,-0.517609,1.054628,0.344404,-0.506014,-1.049634,-1.119717,0.605803757,-0.90618505,-0.442681533,-0.213890887,0.241204011,-1.583546392
832323,-0.540587,1.075897,0.346114,-0.525826,-1.092405,-1.108197,0.607148136,-0.932215568,-0.423867346,-0.177193888,0.255080516,-1.612909952
832333,-0.555009,1.110367,0.355154,-0.532217,-1.130899,-1.069389,0.604824976,-0.963011855,-0.388543424,-0.136076675,0.28064929,-1.615084961
832343,-0.558431,1.179795,0.350268,-0.55075,-1.166949,-1.008146,0.582643267,-1.023718158,-0.337446566,-0.072506785,0.308314519,-1.606592298
832353,-0.554765,1.260713,0.338784,-0.562893,-1.202388,-0.963275,0.547990788,-1.09239288,-0.280055582,-0.023480858,0.329941405,-1.606571342
832363,-0.565765,1.326474,0.341472,-0.591652,-1.238438,-0.923861,0.532370608,-1.147338069,-0.227715515,0.036097188,0.342507136,-1.618235388
832373,-0.577009,1.336498,0.344159,-0.634471,-1.292819,-0.878384,0.542017394,-1.158863225,-0.224845255,0.10237254,0.387863138,-1.638467246
832435,-0.557209,1.090809,0.091037,-0.703492,-1.700367,-0.433311,0.383268007,-1.065656056,-0.524482719,0.466885997,0.854541085,-1.620396356
832445,-0.525676,1.020892,0.04999,-0.706687,-1.763913,-0.343569,0.326783982,-1.015681143,-0.572614017,0.536680501,0.918711262,-1.61145242
832455,-0.480942,0.904038,0.032398,-0.705409,-1.829292,-0.263529,0.281994478,-0.912828756,-0.630050921,0.598267438,0.981756121,-1.609841484
832465,-0.425942,0.780093,0.025313,-0.709244,-1.892227,-0.158627,0.240047013,-0.795104145,-0.682511017,0.679907722,1.049992736,-1.594977536
832475,-0.351386,0.650038,0.012119,-0.69071,-1.929499,-0.068885,0.183659626,-0.665396222,-0.736020074,0.732338023,1.10215437,-1.56643819
832485,-0.251652,0.519982,0.013341,-0.678568,-1.950273,0.016006,0.121577255,-0.516279678,-0.770735401,0.785589037,1.136562713,-1.53471514
832495,-0.194696,0.39726,0.019693,-0.639583,-1.941719,0.099078,0.096930362,-0.391898667,-0.817984083,0.81599208,1.163145191,-1.473229693
832505,-0.173185,0.298985,0.032887,-0.57887,-1.908724,0.202767,0.104458475,-0.301565725,-0.86356991,0.836356676,1.212065612,-1.360454595
832567,0.016749,0.533427,0.257912,0.06469,-1.686925,0.827324,0.088085499,-0.283482841,-0.486948426,0.751423673,1.627880856,-0.565448614
832576.875,-0.028718,0.588432,0.247895,0.215515,-1.610548,0.992862,0.113525616,-0.348401125,-0.476304035,0.739738182,1.715030824,-0.370868198
832586.75,-0.069296,0.656883,0.241054,0.439195,-1.490788,1.226313,0.138006018,-0.418336579,-0.451955214,0.717158537,1.843651126,-0.07628133
832596.625,-0.130407,0.695019,0.280635,0.804114,-1.352698,1.477955,0.215388579,-0.457363853,-0.431458476,0.607105052,2.048520257,0.309403293
832606.5,-0.176852,0.770804,0.340495,0.914676,-1.232939,1.835711,0.296018377,-0.504143348,-0.367888549,0.756318664,2.184723813,0.617713184
832616.375,-0.211074,0.819697,0.331455,1.187566,-1.07774,1.885433,0.326274605,-0.551932426,-0.355614012,0.573053394,2.25311843,0.849565333
832626.25,-0.266074,0.942419,0.312397,1.435531,-0.917043,2.0061,0.363522523,-0.665422653,-0.306022407,0.460188342,2.34098641,1.110929181
832636.125,-0.308608,1.026759,0.29676,1.662407,-0.773454,2.024897,0.378249431,-0.755116061,-0.275937474,0.307278844,2.365563213,1.331062126
832696,-0.398808,1.247023,0.104475,2.132136,-0.314579,0.558704,0.310964744,-1.02591812,-0.24117054,-1.088624681,1.618446478,1.07361135
832706,-0.38023,1.263402,0.06636,1.999845,-0.328022,0.226415,0.280862313,-1.021483608,-0.210791082,-1.232773108,1.41404706,0.799364488
832716,-0.384142,1.289805,0.070758,1.841991,-0.365294,-0.239274,0.289812828,-1.012113424,-0.158689326,-1.45227464,1.131612769,0.440424236
832726,-0.371675,1.33063,0.103742,1.662407,-0.414175,-0.774089,0.300705097,-0.983402821,-0.071573244,-1.704989005,0.790824985,0.04427281
832736,-0.400764,1.370723,0.138192,1.524365,-0.445337,-1.288287,0.336222125,-0.973060417,-0.00065098,-1.971841586,0.455491941,-0.293368271
832746,-0.451609,1.387591,0.14259,1.351172,-0.480165,-1.602991,0.360275882,-0.976251436,0.032872597,-2.070376626,0.197965971,-0.547863529
832756,-0.401742,1.365345,0.146988,1.147942,-0.523547,-1.937099,0.310367974,-0.894975032,0.07231548,-2.160597196,-0.095590224,-0.816643802
832766,-0.443297,1.384657,0.152363,0.930014,-0.570596,-2.237856,0.341958824,-0.928376788,0.076188842,-2.223702975,-0.378301605,-1.053820804
832827,-0.387319,1.373901,0.270128,-0.421655,-0.830278,-2.768427,0.347407303,-0.793582567,0.166243533,-1.642752898,-1.418099398,-1.954916767
832837,-0.332075,1.421816,0.265486,-0.613381,-0.835166,-2.78965,0.259506671,-0.753734829,0.251741768,-1.515218059,-1.580714012,-2.015277417
832847,-0.296875,1.465087,0.23519,-0.782739,-0.829056,-2.811479,0.164349127,-0.734885241,0.312578404,-1.408115727,-1.738541323,-2.049173621
832857,-0.28343,1.483666,0.201717,-0.987247,-0.818058,-2.826638,0.082820149,-0.719356185,0.3408783,-1.277666681,-1.923003399,-2.074459856
832867,-0.278297,1.473887,0.173375,-1.191754,-0.812559,-2.81633,0.015284518,-0.695192877,0.340270214,-1.132829363,-2.094392668,-2.083857332
832877,-0.269008,1.404459,0.132084,-1.394984,-0.804004,-2.759331,-0.049191096,-0.653866842,0.277636473,-0.96122087,-2.243989848,-2.060794594
832887,-0.239185,1.273914,0.092991,-1.540057,-0.800338,-2.68111,-0.103672562,-0.578730849,0.158894419,-0.816425787,-2.337549536,-2.017418749
832897,-0.162429,1.124057,0.063917,-1.696633,-0.794839,-2.605921,-0.135251881,-0.482827176,0.021057074,-0.664438881,-2.420126735,-2.000665987
832959,0.073949,0.384059,0.061473,-1.804639,-0.676302,-2.38581,-0.103130978,-0.038730153,-0.619720266,-0.485351373,-2.435786552,-1.79932587
832969,0.05806,0.285295,0.043393,-1.757985,-0.660415,-2.328811,-0.085609979,-0.021502356,-0.71918737,-0.485451633,-2.395069534,-1.725687847
832979,-0.000851,0.218066,0.049501,-1.715805,-0.63903,-2.257867,-0.028889677,-0.042380379,-0.782346276,-0.485794607,-2.332354938,-1.665663102
832989,0.030683,0.148638,0.040705,-1.671069,-0.617033,-2.191773,-0.034417771,-0.000539817,-0.846680973,-0.488926212,-2.25253955,-1.632203095
832999,0.083972,0.123703,0.039239,-1.624416,-0.610923,-2.140232,-0.058978823,0.049671368,-0.866031042,-0.495900699,-2.171238725,-1.622452515
833009,0.130416,0.112457,0.040705,-1.596935,-0.617033,-2.082021,-0.080128411,0.09237129,-0.872098517,-0.483002032,-2.099956155,-1.619455385
833019,0.14215,0.118813,0.035086,-1.57265,-0.613978,-2.025022,-0.092609439,0.098204494,-0.868343067,-0.473117409,-2.037796256,-1.604511591
833029,0.097661,0.193375,0.072957,-1.543252,-0.601147,-1.958928,-0.066468463,0.054857564,-0.788276415,-0.44325097,-1.987444465,-1.560127058
833090,0.306906,0.913083,0.123044,-0.549472,-0.642696,-1.053624,-0.391360086,0.036684308,-0.112000435,-0.292677232,-0.734543284,-1.095393702
833100,0.395395,1.071008,0.080775,-0.337295,-0.675691,-0.993593,-0.515546526,0.054629997,0.020366251,-0.364055054,-0.519642127,-1.074704272
833110,0.349928,1.098388,0.048768,-0.119367,-0.716018,-0.907489,-0.513521721,0.005272709,0.033223965,-0.412336031,-0.286944124,-1.047906775
833120,0.261195,1.039961,0.02458,0.087697,-0.767954,-0.77894,-0.453890942,-0.054520867,-0.029764784,-0.414199739,-0.041164384,-1.01535004
833130,0.242617,1.019425,0.026046,0.257055,-0.811948,-0.61704,-0.420727053,-0.055690223,-0.041534518,-0.370059274,0.184440589,-0.967012405
833140,0.287839,1.054628,-0.016956,0.462841,-0.838832,-0.48182,-0.470024431,-0.036348241,-0.013524023,-0.367439738,0.426340384,-0.912816161
833150,0.337217,1.105722,-0.069486,0.635395,-0.862051,-0.309006,-0.530616371,-0.021400819,0.029151603,-0.314654624,0.654242589,-0.845755605
833160,0.377551,1.153882,-0.131301,0.760017,-0.879771,-0.150138,-0.614904621,-0.023904667,0.054774504,-0.236161663,0.832763722,-0.790503969
833221,0.220128,1.086898,0.10423,1.45023,-1.061854,0.738795,-0.290426383,-0.047827884,0.074259048,0.220700812,1.846659111,-0.563613611
833231,0.189572,1.073697,0.115225,1.560153,-1.104014,0.989224,-0.228068197,-0.067478606,0.070266848,0.384293697,2.054345469,-0.513294718
833241,0.167328,1.070519,0.116691,1.631731,-1.121734,1.219037,-0.179590956,-0.087452156,0.071319554,0.546335108,2.212652935,-0.46105246
833251,0.179061,1.109633,0.106185,1.677745,-1.126011,1.379117,-0.163018756,-0.095747992,0.113050178,0.659988042,2.316979733,-0.425104053
833261,0.20815,1.104255,0.118157,1.679023,-1.121734,1.511911,-0.125223527,-0.069903895,0.120758278,0.770634561,2.368389973,-0.400164442
833271,0.23235,1.09301,0.133305,1.666881,-1.104014,1.562846,-0.081876232,-0.047018737,0.121388927,0.814276505,2.372295941,-0.385995522
833281,0.258995,1.115989,0.152119,1.609363,-1.074074,1.566484,-0.039840623,-0.029342614,0.154643574,0.834545121,2.31393342,-0.383148685
833291,0.262661,1.1155,0.157738,1.523086,-1.039246,1.551325,-0.036200303,-0.023850481,0.155998711,0.853884207,2.222286987,-0.372498025
833351,0.278061,1.093987,0.095435,0.295401,-0.625587,1.240259,-0.078570373,-0.035422246,0.129515505,1.045326285,0.903884566,-0.32733604
833360.875,0.28295,1.053162,0.094213,0.062773,-0.566319,0.945565,-0.063532568,-0.029614123,0.092324863,0.863347217,0.571919383,-0.382479583
833370.75,0.293217,1.014781,0.097389,-0.195418,-0.507661,0.892812,-0.05113998,-0.014925109,0.059435344,0.911678781,0.306268361,-0.409954442
833380.625,0.280017,0.968821,0.103497,-0.427407,-0.464279,0.644808,-0.032316061,-0.010414317,0.013204073,0.769065163,-0.005199841,-0.471721133
833390.5,0.259484,0.934107,0.104963,-0.644057,-0.43495,0.386496,-0.026897216,-0.00731467,-0.025254854,0.613265173,-0.306950955,-0.532031032
833400.375,0.243595,0.942419,0.121333,-0.807024,-0.414175,0.140918,-0.023385745,-0.010527615,-0.019410346,0.453910153,-0.551952123,-0.576195259
833410.25,0.225017,0.954398,0.148454,-0.987886,-0.390346,-0.045237,-0.011509443,-0.012123994,-0.008401632,0.35565878,-0.793114713,-0.612218114
833420.125,0.203506,0.944619,0.161403,-1.150214,-0.379347,-0.245338,0.009199721,-0.02423956,-0.020664264,0.230971982,-1.010662767,-0.672532409
833481,0.140928,0.862234,0.13526,-1.455058,-0.408065,-0.886267,-0.001943249,-0.050799847,-0.117379448,-0.242898335,-1.510118374,-0.85423821
833490.875,0.139461,0.902326,0.139169,-1.43269,-0.427007,-0.885054,-0.014823074,-0.045184269,-0.077639848,-0.249229591,-1.497230555,-0.845246397
833500.75,0.137261,0.911616,0.140147,-1.4116,-0.450836,-0.860799,-0.023582246,-0.034771346,-0.068463459,-0.236071824,-1.475112654,-0.839735274
833510.625,0.135061,0.899882,0.137703,-1.354082,-0.46489,-0.811684,-0.028344388,-0.025231605,-0.080461439,-0.217243699,-1.409833622,-0.820771602
833520.5,0.138239,0.88228,0.131595,-1.29273,-0.480776,-0.746196,-0.034791028,-0.015035735,-0.098108225,-0.185430427,-1.331898085,-0.806701886
833530.375,0.143861,0.883258,0.12793,-1.230739,-0.500329,-0.6704,-0.040858119,-0.006231619,-0.096950418,-0.143243313,-1.249456378,-0.795502273
833540.25,0.138972,0.885703,0.114004,-1.136154,-0.51316,-0.59703,-0.052321303,-0.01033776,-0.097816235,-0.114124995,-1.1395831,-0.773918447
833550.125,0.130172,0.894503,0.108873,-1.042847,-0.525991,-0.492735,-0.055301883,-0.02183757,-0.091485543,-0.046135092,-1.018281708,-0.753629945
833611,0.135061,0.945841,0.041194,-0.436354,-0.578539,0.305849,-0.117327351,-0.049739157,-0.052205758,0.497749949,-0.200315148,-0.575130096
833620.875,0.151928,0.967354,0.01725,-0.364137,-0.574873,0.398017,-0.137127037,-0.047983748,-0.031471644,0.55341533,-0.107013649,-0.551154974
833630.75,0.174417,0.994734,-0.011581,-0.280417,-0.569985,0.45259,-0.162591015,-0.043477659,-0.004146097,0.570987362,-0.014750114,-0.531140441
833640.625,0.185905,1.012336,-0.098317,-0.219064,-0.557764,0.504131,-0.237500743,-0.064286204,0.004246862,0.593129764,0.054297827,-0.508415785
833650.5,0.197883,1.020648,-0.052383,-0.170494,-0.538823,0.541726,-0.185383835,-0.044627891,0.023359754,0.606487965,0.105585271,-0.483621327
833660.375,0.195194,1.014047,-0.059957,-0.130231,-0.522936,0.573863,-0.178346946,-0.049929258,0.017686737,0.618411163,0.147627383,-0.464235615
833670.25,0.180772,0.993757,-0.056781,-0.093803,-0.499718,0.595692,-0.157060273,-0.059453396,-0.002376355,0.622076499,0.181196766,-0.439948409
833680.125,0.170261,0.977622,-0.047985,-0.046511,-0.475888,0.608426,-0.144796103,-0.063456685,-0.019161848,0.619395766,0.223897389,-0.406243404
833741,0.203261,1.054628,-0.098317,0.071081,-0.375681,0.464717,-0.192069822,-0.061800544,0.059486367,0.439606141,0.272235257,-0.307871756
833751,0.181505,1.039961,-0.07877,0.082585,-0.373237,0.446526,-0.153098376,-0.071237524,0.045061607,0.415596212,0.275754852,-0.31104768
833761,0.16195,1.027982,-0.065332,0.100479,-0.370182,0.430154,-0.12167737,-0.079266292,0.032547596,0.391796397,0.285227222,-0.311936245
833771,0.145572,1.027982,-0.057758,0.127321,-0.374459,0.423484,-0.097526674,-0.087610838,0.031545964,0.375208215,0.307036315,-0.317358432
833781,0.134816,1.02896,-0.062645,0.145854,-0.37507,0.43258,-0.087061517,-0.093688134,0.031746702,0.376190031,0.324200225,-0.320080654
833791,0.12675,1.03776,-0.077793,0.162471,-0.386068,0.436218,-0.087485513,-0.1008127,0.039829897,0.372453996,0.339946006,-0.333835594
833801,0.120883,1.044605,-0.081458,0.167583,-0.390957,0.450164,-0.077933333,-0.101479493,0.046936493,0.381850266,0.345768436,-0.343822088
833811,0.114038,1.06514,-0.084146,0.172696,-0.392179,0.447739,-0.078203768,-0.112503217,0.065755897,0.378184888,0.350240966,-0.344101648
833871,0.086905,1.041916,0.032643,0.072998,-0.469167,0.470174,0.034464471,-0.09619857,0.04104036,0.426347067,0.270197282,-0.437871647
833881,0.076149,1.027004,0.061962,0.062773,-0.475888,0.460473,0.05743943,-0.090374165,0.026113248,0.423696197,0.25451691,-0.445138065
833891,0.067594,1.013069,0.087128,0.064051,-0.492996,0.43258,0.075314262,-0.085015492,0.012703888,0.400938232,0.247501913,-0.460721586
833901,0.057572,1.010136,0.10985,0.053187,-0.518048,0.384677,0.091327404,-0.08269407,0.010236256,0.361922904,0.224919287,-0.487444466
833911,0.050238,1.021626,0.112293,0.044879,-0.535157,0.315551,0.087263495,-0.083140621,0.021922687,0.30168686,0.197763798,-0.507793356
833921,0.044616,1.042405,0.105696,0.040405,-0.563264,0.253095,0.073581703,-0.083861971,0.042747965,0.247388667,0.176976799,-0.538919323
833931,0.04486,1.048272,0.10081,0.021871,-0.592592,0.179119,0.061185356,-0.073557782,0.049711802,0.18486396,0.13888418,-0.574685771
833941,0.034838,1.055851,0.087861,-0.015196,-0.612756,0.111206,0.050619054,-0.087083474,0.055276625,0.127519431,0.090869181,-0.602950409
834001,0.023838,1.124057,0.020671,-0.415264,-0.712352,-0.175605,-0.017571326,-0.103909692,0.119550671,-0.060759289,-0.356846363,-0.761377475
834011,0.012838,1.115745,0.01554,-0.49515,-0.722739,-0.165904,-0.024991576,-0.097417691,0.111385813,-0.034260312,-0.442770858,-0.773194361
834021,-0.01014,1.112811,0.021159,-0.561615,-0.740459,-0.130128,-0.021274513,-0.101590407,0.108208297,0.015242892,-0.510333263,-0.787370212
834031,-0.025295,1.098143,0.030932,-0.617215,-0.756345,-0.077374,-0.016351006,-0.097453787,0.094417689,0.079538431,-0.564912989,-0.795955906
834041,-0.035318,1.086165,0.043882,-0.665147,-0.775898,-0.00461,-0.009139497,-0.089194209,0.083922627,0.16141555,-0.60890337,-0.804761577
834051,-0.032629,1.066852,0.047302,-0.70477,-0.79545,0.056026,-0.01362023,-0.071023526,0.065948155,0.229890416,-0.647992719,-0.812303023
834061,-0.022362,1.041427,0.056831,-0.729695,-0.815003,0.123939,-0.01055259,-0.045615662,0.042164993,0.30106875,-0.672057581,-0.818377526
834071,-0.013318,0.997912,0.056831,-0.732251,-0.8315,0.181544,-0.009158258,-0.035320052,-0.001048494,0.359246994,-0.66434523,-0.83074004
834251,0.017971,0.884725,-0.024286,-0.117449,-1.003196,0.048144,-0.077363924,-0.012289076,-0.11823195,0.123604491,-0.078583293,-1.000530321
834261,0.012838,0.907949,-0.028439,-0.097638,-0.983033,0.010549,-0.072558874,-0.015908391,-0.094556953,0.071189297,-0.068569432,-0.982969306
834271,0.010882,0.915527,-0.029661,-0.08933,-0.973256,-0.013099,-0.064306086,-0.014887694,-0.086309153,0.035173955,-0.067404231,-0.974473261
834281,0.009171,0.916016,-0.028439,-0.071435,-0.958592,-0.046449,-0.053400775,-0.012586522,-0.085140375,-0.011504115,-0.058108393,-0.960546803
834291,0.006238,0.912105,-0.028439,-0.064405,-0.942705,-0.064034,-0.043867692,-0.009519805,-0.088535124,-0.040287725,-0.059083388,-0.944365992
834301,-0.005984,0.902571,-0.028439,-0.044594,-0.923764,-0.071917,-0.033786384,-0.014384569,-0.097708163,-0.060049361,-0.047103961,-0.92448683
834311,-0.019429,0.902326,-0.038945,-0.042676,-0.906044,-0.07131,-0.034011799,-0.022180863,-0.097538025,-0.069166372,-0.051101566,-0.905774105
834321,-0.019673,0.920417,-0.04261,-0.021586,-0.888325,-0.072523,-0.03757731,-0.022781975,-0.079435488,-0.072522013,-0.030229786,-0.88807295
834383,-0.001829,0.992779,-0.103936,-0.072074,-0.730071,-0.014312,-0.089551825,-0.009738444,-0.0058663,-0.01728258,-0.074761343,-0.7297364
834393,-0.000606,0.996935,-0.098805,-0.067601,-0.690355,0.014794,-0.073744989,-0.006749119,-0.000921267,0.003877111,-0.067947596,-0.690468591
834403,-0.001584,0.998646,-0.095629,-0.063766,-0.655527,0.050569,-0.059389807,-0.006667502,0.001433794,0.032339178,-0.061230964,-0.656920026
834413,-0.000118,1.002313,-0.102226,-0.039481,-0.618866,0.073611,-0.054547974,-0.006354139,0.006014743,0.047259575,-0.034675643,-0.621720666
834423,0.005994,1.003291,-0.110777,-0.020308,-0.579761,0.120301,-0.051778268,-0.003926798,0.008069389,0.087198774,-0.010368342,-0.58591504
834433,0.019927,1.002802,-0.115908,0.006533,-0.541267,0.1488,-0.046198574,0.004378941,0.00860801,0.109573627,0.020848728,-0.550193635
834443,0.032394,1.002313,-0.118107,0.021871,-0.505217,0.173055,-0.037298295,0.010441649,0.009024179,0.129287688,0.040210129,-0.517047803
834453,0.036549,0.998157,-0.115664,0.058299,-0.477721,0.187001,-0.035473019,0.014804825,0.004765579,0.143103092,0.07707154,-0.490068346
834515,0.005749,0.985689,-0.094896,0.251943,-0.36285,0.404081,-0.000918159,-0.012145311,-0.009811758,0.352040327,0.280533264,-0.39469678
834524.875,0.011127,0.981778,-0.095873,0.269837,-0.349407,0.422878,-0.002223627,0.004908983,-0.013503958,0.371868609,0.293466426,-0.386412028
834534.75,0.010882,0.981044,-0.091964,0.295401,-0.335354,0.414995,-0.006226625,0.002419925,-0.014617588,0.368012069,0.318172533,-0.367801933
834544.625,0.005505,0.991556,-0.090498,0.309461,-0.319468,0.409538,0.00299146,0.008557087,-0.004348795,0.362017142,0.326558785,-0.357561513
834554.5,-0.000362,1.004757,-0.090254,0.324799,-0.312135,0.395591,0.012216239,0.014148715,0.008629328,0.346625187,0.336127604,-0.355364744
834564.375,-0.010873,1.018936,-0.09905,0.336302,-0.30297,0.384677,0.010982309,0.015989243,0.02361293,0.335411002,0.341963322,-0.351321501
834574.25,-0.023829,1.024559,-0.106868,0.342693,-0.287695,0.376794,0.019436824,0.00031328,0.030209613,0.325110144,0.348298997,-0.339369749
834584.125,-0.026762,1.029204,-0.115419,0.349084,-0.274863,0.370124,0.011637067,-0.002803593,0.035932113,0.31979957,0.354789509,-0.32596583
834645,-0.007207,1.121123,-0.155489,0.221906,-0.139828,0.166991,-0.013455914,-0.001221998,0.131796358,0.139490828,0.226525902,-0.160961055
834655,-0.00794,1.135791,-0.141562,0.189951,-0.115388,0.118482,-0.00877204,-0.003562792,0.144567341,0.097155491,0.193184519,-0.129129042
834665,-0.005495,1.143125,-0.130568,0.169501,-0.101334,0.085132,0.017071747,0.003118757,0.150439825,0.065215552,0.171220126,-0.112593189
834675,-0.005251,1.164394,-0.137409,0.138824,-0.082393,0.052995,0.00286043,-0.005847218,0.172467407,0.037767556,0.140320667,-0.088050563
834685,0.002571,1.185907,-0.138631,0.113261,-0.062229,0.016006,-0.004339487,-0.011171142,0.193925019,0.004871925,0.114222482,-0.062339261
834695,0.009905,1.20962,-0.138631,0.090893,-0.042065,-0.022801,-0.014792261,-0.006740591,0.217469901,-0.030183538,0.0903941,-0.038324247
834705,0.016994,1.2326,-0.12617,0.059578,-0.023124,-0.064034,-0.013135788,0.008902571,0.239055536,-0.067968431,0.057295058,-0.016798195
834715,0.005994,1.250934,-0.109311,0.039766,-0.00296,-0.099203,0.005714904,-0.001534497,0.25570127,-0.100411236,0.036169544,0.006378041
834776,-0.070762,1.26878,-0.045298,-0.003053,0.008649,-0.063428,0.062834886,-0.062682146,0.268457561,-0.06234059,-0.00521591,0.013916978
834786,-0.079318,1.279293,-0.049451,-0.001775,-0.001127,-0.019769,0.049805758,-0.056882961,0.280472976,-0.019722499,-0.002468434,0.000404933
834796,-0.089096,1.283204,-0.055315,-0.006887,-0.017014,0.032378,0.03400121,-0.053444485,0.285922998,0.031384341,-0.006309423,-0.018985684
834806,-0.082007,1.293472,-0.056292,-0.003053,-0.0329,0.071792,0.023296894,-0.031784297,0.29669224,0.069777974,-0.002094612,-0.03704685
834816,-0.075162,1.306428,-0.065332,-0.01903,-0.049398,0.093015,0.007286131,-0.007392314,0.31017708,0.090812498,-0.018817365,-0.053414329
834826,-0.063673,1.30325,-0.074373,-0.031173,-0.067117,0.10211,-0.01020521,-0.015619308,0.306789213,0.099744069,-0.030647147,-0.07081506
834836,-0.052429,1.291516,-0.065332,-0.056097,-0.083004,0.091196,0.003214063,0.012994437,0.294160524,0.088484876,-0.05772053,-0.084805748
834846,-0.053407,1.268536,-0.064355,-0.07527,-0.095224,0.071792,0.003031301,0.010850439,0.271239763,0.069081723,-0.078047888,-0.094992195
834919,0.035083,1.229422,-0.096851,-0.325153,-0.064673,-0.310825,-0.031096747,0.083792729,0.230488179,-0.303611558,-0.336408258,-0.034187086
834929,0.021394,1.208886,-0.098317,-0.352633,-0.055508,-0.378132,-0.030151822,0.057869826,0.211309724,-0.369518438,-0.365180062,-0.022685377
834939,0.005994,1.190552,-0.089765,-0.371167,-0.046343,-0.424216,-0.019420337,0.031232321,0.193379714,-0.414474417,-0.384600065,-0.012867705
834949,0.000616,1.173439,-0.083657,-0.384588,-0.048176,-0.452108,-0.012282738,0.014537119,0.176263477,-0.442044659,-0.39871985,-0.015795598
834959,0.002082,1.175884,-0.080725,-0.398648,-0.043288,-0.467874,-0.003708275,0.009547123,0.178608986,-0.457098374,-0.413113136,-0.009938434
834969,0.010638,1.181017,-0.092941,-0.409512,-0.036566,-0.472725,-0.010823343,0.010315894,0.184621791,-0.46120549,-0.42400809,-0.003565429
834979,0.016016,1.17295,-0.094652,-0.420377,-0.040843,-0.464236,-0.007256966,0.010214678,0.176805087,-0.45276302,-0.43455712,-0.00811138
834989,0.016749,1.151437,-0.097095,-0.430602,-0.035955,-0.452715,-0.011320963,0.010923185,0.15553782,-0.440598437,-0.444429473,-0.004144495
835051,-0.002318,1.063185,-0.07364,-0.294476,-0.107444,-0.218051,-0.00685626,-0.01406029,0.065619945,-0.215426119,-0.300035445,-0.096834318
835061,0.009171,1.070763,-0.075106,-0.248462,-0.119665,-0.194403,-0.004387168,-0.015619894,0.07331039,-0.194675963,-0.251639597,-0.112358297
835071,0.022371,1.062451,-0.070463,-0.220982,-0.129441,-0.184095,-0.011306379,0.011935588,0.064893108,-0.184927561,-0.225007789,-0.121046593
835081,0.01186,1.044361,-0.060202,-0.174967,-0.14655,-0.183488,-0.004357556,0.020420758,0.045953557,-0.186501992,-0.180975043,-0.134993483
835091,-0.01014,1.01527,-0.056048,-0.136622,-0.17099,-0.17318,-0.003816022,0.01594293,0.016734298,-0.178370075,-0.145058711,-0.158229423
835101,-0.03434,0.991067,-0.051406,-0.084856,-0.193598,-0.145893,-0.006599355,0.005643306,-0.007044708,-0.152467823,-0.095668597,-0.183211834
835111,-0.033607,0.976155,-0.046764,-0.030534,-0.210095,-0.107692,-0.009475378,-0.005207121,-0.022207594,-0.114891947,-0.038740577,-0.204862904
835121,-0.017718,0.960509,-0.030638,0.024428,-0.238813,-0.082225,0.005746178,0.010493777,-0.038913627,-0.091574057,0.015786141,-0.23612352
835183,0.025549,0.954398,-0.054582,0.238522,-0.305414,-0.114969,-0.010960493,0.041471865,-0.044663703,-0.132773857,0.231315109,-0.303731378
835193,0.029216,0.955131,-0.060202,0.258334,-0.305414,-0.138011,-0.007726126,0.034077521,-0.043165577,-0.158100147,0.254706842,-0.2986469
835203,0.034105,0.943641,-0.067287,0.271754,-0.306025,-0.162872,-0.007991486,0.027138175,-0.053771336,-0.184665745,0.271988544,-0.293171657
835213,0.046327,0.934107,-0.068997,0.280063,-0.300526,-0.190765,-0.005043294,0.02727098,-0.062613461,-0.213040646,0.284237466,-0.281007459
835223,0.05586,0.917972,-0.06631,0.283897,-0.301748,-0.23988,-0.001025729,0.025282639,-0.078289804,-0.26207453,0.291949888,-0.274361039
835233,0.055127,0.903304,-0.061179,0.285175,-0.304192,-0.28839,-0.003224065,0.021337493,-0.093206589,-0.307927805,0.294935275,-0.27426264
835243,0.045349,0.87788,-0.041388,0.280702,-0.304192,-0.329622,0.007710141,0.016525884,-0.120164651,-0.34601841,0.289993238,-0.275956935
835253,0.029949,0.864923,-0.022331,0.291566,-0.305414,-0.352664,0.026009735,0.001588006,-0.13466285,-0.369089771,0.300855428,-0.275534196
835314,0.033371,0.860767,-0.033081,0.287092,-0.34513,-0.293847,0.024199767,-0.002439265,-0.138294583,-0.314921103,0.30158358,-0.312657377
835324,0.034349,0.893526,-0.05336,0.271754,-0.364072,-0.267167,0.018601957,0.00013662,-0.1044165,-0.293222561,0.286944276,-0.330847964
835334,0.038016,0.925795,-0.068264,0.250025,-0.384846,-0.231391,0.00154319,-0.006471311,-0.070937401,-0.25653681,0.270311352,-0.353951094
835344,0.047794,0.934107,-0.067776,0.21871,-0.408065,-0.190158,-0.005530927,0.001536583,-0.062236284,-0.213135649,0.241276951,-0.38323596
835354,0.050727,0.907949,-0.045053,0.199538,-0.436783,-0.150138,0.007329078,0.004652297,-0.089561079,-0.170664453,0.224224608,-0.416813137
835364,0.052194,0.863456,-0.015245,0.191229,-0.461224,-0.116788,0.027001425,0.011476224,-0.135331215,-0.133958121,0.215375611,-0.445650214
835374,0.033127,0.842432,-0.015245,0.187395,-0.488719,-0.070704,0.020444814,0.002590097,-0.157030971,-0.08537214,0.20706001,-0.47833038
835384,0.015527,0.850011,-0.021598,0.200816,-0.52538,-0.022195,0.01390653,-0.015096726,-0.149820631,-0.038049698,0.220491922,-0.516506884
835445,-0.028718,0.837543,0.010165,0.235326,-0.791173,0.228841,0.039337876,-0.052880265,-0.164498632,0.208633285,0.249394222,-0.792449317
835455,-0.035073,0.775204,0.016761,0.288371,-0.823557,0.236117,0.038236772,-0.053946211,-0.22664365,0.224300077,0.296778708,-0.823873217
835465,-0.029207,0.696486,0.038995,0.32352,-0.857774,0.248851,0.053490261,-0.045773878,-0.305370638,0.246003688,0.327571265,-0.857057465
835475,-0.020651,0.634392,0.059519,0.374008,-0.87916,0.233692,0.068738204,-0.036701622,-0.367267643,0.241915502,0.375782284,-0.876173958
835485,-0.011851,0.605545,0.074911,0.426413,-0.889547,0.186395,0.080418239,-0.0289853,-0.395740445,0.206826053,0.429289739,-0.883627926
835495,0.003305,0.589166,0.110583,0.482653,-0.905433,0.106355,0.113778306,-0.017656753,-0.411698347,0.139841622,0.490956323,-0.8963707
835505,0.028971,0.576942,0.134527,0.547201,-0.911544,-0.002791,0.137212034,0.004448653,-0.422980095,0.045172878,0.564677682,-0.899693123
835515,0.046816,0.581832,0.141612,0.609831,-0.908488,-0.117394,0.145870394,0.021479691,-0.417733202,-0.063364332,0.637224142,-0.894961452
835576,0.099372,0.649549,0.127686,0.770881,-0.632309,-0.687378,0.135641328,0.074415735,-0.348727292,-0.610529093,0.844391523,-0.617104437
835585.875,0.075172,0.653949,0.118646,0.745318,-0.541878,-0.724973,0.122527646,0.053282853,-0.3446185,-0.645199348,0.821438557,-0.532609649
835595.75,0.038994,0.644904,0.087128,0.705694,-0.460002,-0.712846,0.085097025,0.023914807,-0.354090124,-0.63260265,0.779410874,-0.45835342
835605.625,0.016749,0.651504,0.05732,0.634756,-0.39279,-0.6704,0.049813097,0.00877836,-0.347723089,-0.594112525,0.703164726,-0.399030074
835615.5,0.007705,0.742446,0.038262,0.541449,-0.305414,-0.595211,0.02400745,0.003529792,-0.256924907,-0.527087585,0.602519294,-0.31602222
835625.375,0.010149,0.736334,0.036063,0.443669,-0.222316,-0.507288,0.016662635,0.007305099,-0.262938066,-0.449437808,0.496107553,-0.235564542
835635.25,0.010394,0.760781,0.043637,0.32352,-0.136773,-0.411482,0.017045147,0.0062316,-0.238113799,-0.368174105,0.366728369,-0.150491235
835645.125,0.014549,0.747335,0.04999,0.218071,-0.069561,-0.329016,0.024297689,0.009649451,-0.251309953,-0.300292756,0.252903659,-0.080679751
835784,0.091061,1.032138,0.044859,-0.642779,0.816414,0.609639,0.001563784,0.069032865,0.034816556,0.499121315,-0.715173085,0.831120776
835793.875,0.082749,1.026759,0.076133,-0.640222,0.829246,0.604181,0.013339878,0.049119522,0.031642862,0.484423654,-0.715261586,0.846346505
835803.75,0.044616,0.929462,0.100566,-0.606351,0.84391,0.597511,0.025129994,0.011510541,-0.064457533,0.471464322,-0.677287839,0.869406461
835813.625,0.000127,0.817497,0.12964,-0.555224,0.849409,0.590235,0.054832876,-0.022928313,-0.174424117,0.467976565,-0.612240619,0.885610555
835823.5,-0.036784,0.844143,0.07711,-0.504097,0.857352,0.602969,0.002621396,-0.054502503,-0.153301102,0.493592756,-0.556269804,0.894241549
835833.375,-0.03214,0.965154,0.016761,-0.451692,0.865296,0.633287,-0.060373437,-0.051633777,-0.037438233,0.537191876,-0.504565184,0.900363326
835843.25,-0.000606,1.053406,-0.010603,-0.413347,0.877516,0.650265,-0.085156889,-0.026768918,0.049670768,0.565921265,-0.46739428,0.908300805
835853.125,0.019927,1.111833,-0.027462,-0.396091,0.88607,0.647233,-0.105103859,-0.006907095,0.1073524,0.563123456,-0.450230748,0.917116638
835913,-0.034096,1.096921,-0.052139,-0.268274,0.823135,0.522322,-0.121570027,-0.062087496,0.090175474,0.458986118,-0.312410017,0.845029091
835923,-0.008184,1.112078,-0.070952,-0.273387,0.811526,0.493216,-0.13082672,-0.03745854,0.106028874,0.439855593,-0.312865164,0.827779783
835933,-0.007451,1.072719,-0.053605,-0.278499,0.794418,0.440463,-0.105800123,-0.027923649,0.068495049,0.394395574,-0.305790031,0.808463911
835943,-0.037273,0.958798,0.00821,-0.275943,0.766311,0.375581,-0.044270648,-0.045338935,-0.042537324,0.328887194,-0.288749733,0.782876095
835953,-0.083962,0.829964,0.061718,-0.252297,0.74798,0.313732,0.016450218,-0.080656359,-0.167580087,0.270867789,-0.251712536,0.764739867
835963,-0.111829,0.861989,0.027756,-0.203726,0.722318,0.276744,-0.013062007,-0.099876053,-0.136197178,0.241988486,-0.19415697,0.737278415
835973,-0.095451,0.961731,-0.011825,-0.165381,0.6936,0.23733,-0.047312537,-0.079587363,-0.037916523,0.211982224,-0.152704626,0.704629121
835983,-0.04974,1.04265,-0.038701,-0.139817,0.659383,0.184576,-0.077389705,-0.032678175,0.041169452,0.160432056,-0.127972445,0.668047635
836044,-0.075651,1.068807,-0.041877,-0.114254,0.521293,-0.201073,-0.070315549,-0.053693779,0.068643,-0.214138019,-0.10533227,0.517958243
836053.875,-0.033851,1.110856,-0.043099,-0.11681,0.506017,-0.231391,-0.062240822,-0.012858486,0.110389664,-0.238590357,-0.110349508,0.504120227
836063.75,0.001594,1.100344,-0.033326,-0.129592,0.495019,-0.276262,-0.04744748,0.011128215,0.099770422,-0.280038071,-0.130330558,0.492697893
836073.625,0.02066,1.042405,-0.000586,-0.139178,0.482188,-0.310825,-0.026882379,0.028978185,0.041860339,-0.319267465,-0.142734311,0.47558718
836083.5,0.00746,0.981778,0.053655,-0.130231,0.472411,-0.337505,0.017025253,0.021600325,-0.017113374,-0.35097155,-0.133763878,0.461484655
836093.375,-0.017473,0.926039,0.082241,-0.117449,0.45958,-0.342962,0.038428368,0.007531586,-0.070977044,-0.36057062,-0.11774058,0.44582167
836103.25,-0.045096,0.905993,0.070513,-0.096999,0.437583,-0.330835,0.023501647,-0.005030714,-0.090466376,-0.350073479,-0.091476454,0.423580102
836113.125,-0.067096,0.911127,0.056342,-0.072713,0.420475,-0.296272,0.00987732,-0.027326268,-0.085131475,-0.315541064,-0.066612025,0.407259351
836174,-0.091051,1.004757,0.022137,-0.145569,0.322101,0.077856,-0.020178927,-0.041379015,0.008066242,0.06876148,-0.126455155,0.332087183
836184,-0.087385,1.043628,0.005767,-0.157712,0.303159,0.160321,-0.027993037,-0.037560791,0.04624776,0.155948377,-0.135878725,0.31575046
836194,-0.063429,1.127479,-0.034792,-0.175606,0.276886,0.236724,-0.061507198,-0.016557878,0.128000584,0.23721189,-0.152162783,0.290032038
836204,-0.039473,1.181995,-0.064355,-0.201809,0.264665,0.285233,-0.082692995,-8.94E-05,0.18151332,0.29020819,-0.177714875,0.276276906
836214,-0.019184,1.207664,-0.062156,-0.233763,0.242058,0.327072,-0.071795669,0.010410699,0.207236816,0.336584278,-0.209764904,0.250844609
836224,-0.011362,1.202041,-0.040655,-0.273387,0.224338,0.334955,-0.047179727,-0.001960486,0.2018547,0.347886229,-0.252697467,0.228871151
836234,-0.017229,1.141169,0.003568,-0.302785,0.205397,0.330104,-0.017953105,-0.003511099,0.141158014,0.342353059,-0.281388818,0.215522738
836244,-0.026518,1.075408,0.033864,-0.306619,0.179734,0.29736,0.014102664,-0.011866917,0.076109954,0.310385344,-0.287352252,0.189293721
836305,0.002816,0.981778,0.025557,-0.117449,0.106412,-0.016131,0.010835903,0.002861376,-0.017949326,-0.011005359,-0.118327274,0.106092077
836315,-0.002073,0.977377,0.014807,-0.095081,0.105801,-0.076161,0.006818072,0.010271829,-0.022586399,-0.071414348,-0.09807829,0.106373804
836325,-0.019184,0.963932,0.000392,-0.073992,0.094802,-0.144074,-0.000742657,0.006181606,-0.035897144,-0.139701596,-0.079817662,0.096603093
836335,-0.031896,0.93973,-0.005228,-0.060571,0.086859,-0.196222,-0.002346252,0.008526868,-0.059755911,-0.192168468,-0.068338283,0.090097525
836345,-0.034584,0.938752,-0.00254,-0.045233,0.08136,-0.233817,0.005034918,-0.005175467,-0.060635488,-0.230164156,-0.056707375,0.084525725
836355,-0.011362,1.001824,-0.013535,-0.049067,0.078916,-0.255646,0.001317923,0.011570231,0.001912177,-0.250988989,-0.062793455,0.083974356
836365,0.00086,1.053895,-0.033814,-0.056736,0.085026,-0.271411,-0.009703387,0.017451143,0.054248595,-0.265293759,-0.072058376,0.092407453
836375,-0.002073,1.073941,-0.038945,-0.086773,0.085637,-0.282932,-0.014180355,0.014559654,0.074456707,-0.274887047,-0.102740703,0.093782863
836437,-0.074918,1.065629,-0.11713,-0.303424,0.08136,0.024495,-0.080450484,-0.056842339,0.070137364,0.046203257,-0.299256829,0.087156112
836446.875,-0.074918,1.077119,-0.119329,-0.334739,0.078916,0.088164,-0.075453788,-0.05041022,0.082498495,0.11243233,-0.32595651,0.084629479
836456.75,-0.07834,1.066118,-0.112732,-0.364776,0.079527,0.160928,-0.06320764,-0.046705361,0.072043214,0.187698109,-0.350561886,0.084614889
836466.625,-0.079807,1.021381,-0.098072,-0.390979,0.078916,0.219139,-0.046304777,-0.040234431,0.027347789,0.248029751,-0.372091731,0.084517462
836476.5,-0.063673,0.991312,-0.067287,-0.401843,0.072195,0.245819,-0.010781255,-0.023762979,-0.004710917,0.275845206,-0.381339056,0.07487885
836486.375,-0.046318,1.00109,-0.07535,-0.396091,0.062419,0.259159,-0.011974071,-0.012061152,0.004845918,0.288892054,-0.375360279,0.059946987
836496.25,-0.032384,1.003291,-0.082924,-0.393535,0.050198,0.246425,-0.013533154,-0.007903626,0.007110883,0.275781699,-0.374430767,0.043138972
836506.125,-0.025295,1.001335,-0.07535,-0.378197,0.045921,0.216107,-0.006613299,-0.000383773,0.004462721,0.244260472,-0.361297087,0.040560835
836567,-0.032384,1.090076,-0.127147,-0.230568,-0.034733,-0.099203,-0.041834233,-0.007766072,0.097119116,-0.085436049,-0.237618801,-0.021147246
836577,-0.019673,1.114523,-0.133744,-0.228011,-0.054286,-0.151957,-0.037209494,0.007044716,0.122052507,-0.140033379,-0.239156464,-0.034953605
836587,-0.024562,1.1133,-0.131545,-0.217786,-0.078727,-0.183488,-0.024757045,0.002783211,0.121036847,-0.174823953,-0.231710506,-0.055166613
836597,-0.022607,1.103277,-0.125437,-0.225455,-0.101334,-0.217445,-0.033645789,-0.000381519,0.110105162,-0.209433064,-0.241739144,-0.077979757
836607,-0.025051,1.067585,-0.098072,-0.230568,-0.126997,-0.242306,-0.023765838,0.005073624,0.072097405,-0.234822901,-0.249529161,-0.102934159
836617,-0.030184,1.029937,-0.068997,-0.229929,-0.152049,-0.252614,-0.010527575,0.009386157,0.03259041,-0.245514875,-0.251131999,-0.128277986
836627,-0.03874,1.000602,-0.055804,-0.213312,-0.169157,-0.263529,-0.011755234,0.007118669,0.002811236,-0.256859325,-0.23646504,-0.147211432
836637,-0.046807,0.981778,-0.037235,-0.196057,-0.201541,-0.255039,0.006472595,-0.000755467,-0.016423406,-0.250786511,-0.220348264,-0.180706343
836700,-0.06954,1.013314,-0.09343,-0.136622,-0.372015,-0.014312,-0.03853348,-0.017736075,0.019102959,-0.025029393,-0.157795327,-0.362959679
836710,-0.079074,1.009402,-0.091475,-0.141096,-0.399511,0.06209,-0.02841907,-0.019307744,0.016037567,0.046287461,-0.162897403,-0.39331183
836720,-0.078829,1.012091,-0.082435,-0.125118,-0.423952,0.134248,-0.009462304,-0.017523874,0.018303055,0.111186871,-0.145786981,-0.424023553
836730,-0.066851,1.03116,-0.085612,-0.122562,-0.445337,0.212469,-0.001961016,-0.011372902,0.036800959,0.182526472,-0.138920138,-0.453734334
836740,-0.052184,1.053162,-0.101737,-0.120645,-0.464279,0.256127,-0.00701488,-0.005226256,0.059314525,0.219278812,-0.133275075,-0.479443222
836750,-0.040696,1.062451,-0.112732,-0.113615,-0.484442,0.304637,-0.007119062,-0.000913709,0.069165693,0.259906648,-0.123356551,-0.507570504
836760,-0.030184,1.074675,-0.142784,-0.124479,-0.497274,0.333742,-0.025452275,0.00302642,0.084236009,0.282105971,-0.132278561,-0.52638273
836770,-0.022607,1.066852,-0.169171,-0.1379,-0.508272,0.347082,-0.052751541,0.00959299,0.07908681,0.294600777,-0.145696137,-0.538336111
836832,-0.031651,0.974688,-0.159643,-0.134705,-0.498496,0.277956,-0.042953783,-0.004220171,-0.01276065,0.220864006,-0.14409322,-0.523793348
836842,-0.027251,0.977133,-0.162575,-0.127036,-0.485053,0.220958,-0.035660946,-0.001482882,-0.009702951,0.159894402,-0.137133768,-0.505831104
836852,-0.022362,0.986423,-0.184075,-0.125758,-0.463057,0.156077,-0.045726875,0.001243345,0.002657223,0.092918955,-0.135762741,-0.477002553
836862,-0.013562,0.977377,-0.197025,-0.122562,-0.436783,0.089983,-0.049875644,0.008373056,-0.004153179,0.026032724,-0.132297624,-0.442399603
836872,-0.013318,0.961487,-0.198979,-0.128314,-0.414175,0.033591,-0.044171147,0.008077237,-0.019076491,-0.031000001,-0.137856278,-0.411300881
836882,-0.016251,0.94413,-0.190916,-0.120645,-0.389735,-0.028865,-0.029233383,0.003234149,-0.037072474,-0.093122773,-0.129076514,-0.376761433
836892,-0.014051,0.941685,-0.176013,-0.105307,-0.372015,-0.090108,-0.023491113,-0.003209746,-0.04219704,-0.147870184,-0.109925817,-0.351645986
836902,-0.006962,0.942419,-0.151824,-0.079104,-0.359795,-0.165297,0.000476495,0.003939614,-0.045412749,-0.220252164,-0.0837412,-0.327886228
836965,0.010149,0.966132,-0.089032,0.102396,-0.329244,-0.380557,0.057080805,0.020687369,-0.031622721,-0.425824828,0.098941209,-0.269432804
836974.875,0.017238,0.979089,-0.094896,0.112622,-0.328022,-0.3751,0.044206389,0.026499822,-0.017522914,-0.417464801,0.110631105,-0.272884693
836984.75,0.01626,0.988867,-0.096118,0.124125,-0.319468,-0.355696,0.035231311,0.024169403,-0.007258545,-0.394200012,0.12360033,-0.270768853
836994.625,0.013082,0.985689,-0.092208,0.130516,-0.321912,-0.320527,0.029295147,0.020571108,-0.010568404,-0.356598151,0.130879548,-0.281260773
837004.5,0.004038,0.984467,-0.093919,0.136268,-0.324356,-0.28657,0.018043784,0.010601184,-0.011276381,-0.320015756,0.137528223,-0.290816181
837014.375,-0.000362,0.990578,-0.099783,0.146493,-0.321912,-0.231997,0.003084426,0.007966526,-0.004445595,-0.262055143,0.147471657,-0.297471604
837024.25,-0.006718,0.998401,-0.107845,0.14202,-0.323134,-0.151957,0.006066726,0.012508352,0.004134935,-0.185337567,0.139155021,-0.306532313
837034.125,-0.018207,1.002802,-0.112732,0.136907,-0.318856,-0.06646,0.001526123,0.001188027,0.009280986,-0.100001097,0.132561152,-0.311860431
837095,-0.01454,1.071252,-0.152068,0.027623,-0.316412,0.366486,-0.017761538,-0.000753742,0.081943111,0.324707491,0.016825084,-0.35982431
837105,-0.01014,1.059762,-0.155489,0.00909,-0.31519,0.386496,-0.010459142,-0.001627113,0.071103685,0.340264562,-0.001541828,-0.364724791
837115,-0.008673,1.059029,-0.176013,-0.001136,-0.313357,0.39256,-0.018806039,-0.004364248,0.073417676,0.34213574,-0.01152205,-0.3675699
837125,-0.005495,1.128213,-0.198246,-0.00497,-0.316412,0.379826,-0.017799982,-0.0049493,0.145362349,0.324812856,-0.014740631,-0.372408871
837135,-0.00134,1.088854,-0.214861,-0.020947,-0.307858,0.350114,-0.028038415,-0.003357988,0.109492068,0.292267608,-0.029784125,-0.362612312
837145,0.001105,1.121612,-0.230742,-0.033729,-0.301137,0.296754,-0.025620103,-0.001793629,0.144813069,0.236478004,-0.041307057,-0.349651191
837155,-0.00134,1.146059,-0.246867,-0.054819,-0.304803,0.229447,-0.024739916,-0.003837215,0.172079159,0.165042251,-0.060479431,-0.343014885
837165,-0.00134,1.155593,-0.255419,-0.0823,-0.304192,0.160321,-0.031320171,-0.003605295,0.183064619,0.096240923,-0.085256434,-0.32935985
837226,-0.01014,1.1089,-0.18432,-0.056736,-0.302359,-0.296879,0.01647878,-0.009076836,0.124002648,-0.348254537,-0.042369835,-0.244337172
837236,0.001349,1.106455,-0.168683,-0.016474,-0.300526,-0.353271,0.019856022,0.003722145,0.119057785,-0.399122031,0.00065807,-0.236830827
837246,0.01186,1.1111,-0.157688,0.022511,-0.29686,-0.432705,0.020720326,0.014177019,0.122015622,-0.47267033,0.044010139,-0.224748947
837256,0.021394,1.111833,-0.140829,0.058299,-0.296249,-0.500618,0.027408379,0.022687808,0.120355825,-0.535677744,0.084054542,-0.218551627
837266,0.027016,1.108655,-0.129102,0.088976,-0.294416,-0.549733,0.028951873,0.02733021,0.115763393,-0.580292286,0.11833617,-0.214618951
837276,0.027505,1.117701,-0.123482,0.131155,-0.293194,-0.575807,0.028022937,0.023309772,0.124246959,-0.601954722,0.163762672,-0.213425296
837286,0.03166,1.134569,-0.132767,0.178448,-0.287695,-0.602487,0.020428015,0.017247521,0.142436636,-0.624539619,0.215430948,-0.202836036
837296,0.034594,1.172217,-0.152801,0.212319,-0.280973,-0.606125,0.005741925,0.020526309,0.182448006,-0.625391816,0.249314193,-0.195295187
837357,0.019683,1.336742,-0.260305,0.113261,-0.229648,-0.144074,-0.062853064,0.00808343,0.360518077,-0.169037862,0.125422722,-0.204985164
837367,0.014305,1.328186,-0.26055,0.08578,-0.214983,0.00206,-0.048283184,0.002179442,0.352713188,-0.02649469,0.089866903,-0.211665097
837377,0.008438,1.310829,-0.253464,0.065968,-0.201541,0.146981,-0.028752174,-0.007654836,0.334804324,0.114847133,0.061968821,-0.222584742
837387,0.014794,1.303984,-0.246867,0.042322,-0.186266,0.261585,-0.009177703,-0.013880758,0.32712454,0.226394543,0.032890925,-0.229295846
837397,0.027505,1.301783,-0.243935,0.018676,-0.168546,0.38407,0.000122391,-0.025793286,0.324475171,0.347236293,0.005013993,-0.235940943
837407,0.040705,1.305939,-0.243691,-0.010083,-0.142883,0.471387,-0.014064012,-0.020867286,0.328866296,0.438311174,-0.029637774,-0.222997398
837417,0.054883,1.308628,-0.238316,-0.034368,-0.115999,0.52596,-0.023732745,-0.017511864,0.330956045,0.497285589,-0.057954828,-0.201541882
837427,0.06466,1.306673,-0.222923,-0.06121,-0.084226,0.557491,-0.008201637,-0.008563007,0.327075475,0.531506596,-0.088669313,-0.176848492
837488,0.092772,1.131635,-0.127147,-0.062488,0.113133,0.181544,0.047685347,0.018218404,0.141387302,0.191598628,-0.080797121,0.080148866
837497.875,0.097416,1.119412,-0.127636,-0.042037,0.138185,0.049963,0.032938781,0.019322168,0.130223757,0.065506125,-0.055066545,0.126629887
837507.75,0.097172,1.111345,-0.115908,-0.041398,0.165069,-0.075555,0.030642148,0.01986809,0.120995579,-0.056696096,-0.049536056,0.170299322
837517.625,0.080549,1.082009,-0.101248,-0.017113,0.182178,-0.176212,0.028381812,0.007690979,0.089320016,-0.15487485,-0.021098682,0.200252275
837527.5,0.074927,1.063918,-0.069975,0.002699,0.202953,-0.275656,0.045694885,0.006810652,0.067847208,-0.252395049,0.002663117,0.231242475
837537.375,0.064416,1.054873,-0.056048,0.041044,0.216395,-0.351452,0.047520833,0.003673372,0.057249319,-0.326735611,0.044556171,0.251572063
837547.25,0.050483,1.053895,-0.055804,0.083224,0.231059,-0.392078,0.037422877,-0.000414029,0.055915076,-0.366201807,0.089077048,0.268330337
837557.125,0.035816,1.048517,-0.054093,0.125404,0.242669,-0.412695,0.037938484,-0.014852599,0.04973178,-0.383634825,0.131505022,0.28365881
837618,-0.005984,1.047294,-0.036502,0.227018,0.284829,-0.095565,0.046600817,-0.047473513,0.045833427,-0.062032544,0.219015706,0.299969139
837628,-0.012584,1.034582,-0.028439,0.236605,0.282996,-0.029471,0.047008212,-0.044840989,0.033008501,0.00161207,0.228342426,0.291194676
837638,-0.020407,1.024804,-0.024774,0.255777,0.278108,0.057846,0.043279878,-0.04469228,0.02341726,0.086646463,0.246411033,0.279080788
837648,-0.02334,1.021626,-0.021109,0.267281,0.275664,0.145769,0.040113168,-0.041151798,0.020493749,0.172153361,0.256730659,0.270427374
837658,-0.016984,1.022115,-0.025507,0.280063,0.27933,0.225203,0.029265054,-0.029049511,0.02174254,0.24955198,0.268685474,0.269645785
837668,-0.01454,1.011358,-0.025996,0.280063,0.287273,0.285839,0.023428671,-0.018051557,0.011364151,0.308429405,0.269626261,0.273565305
837678,-0.014295,1.012825,-0.037968,0.273672,0.287273,0.322828,0.010663788,-0.005904813,0.013563917,0.344171138,0.266089958,0.269039811
837688,-0.007207,1.02407,-0.047985,0.271115,0.293994,0.353146,0.001412891,0.001555864,0.025216781,0.374691472,0.26268861,0.274315343
837749,0.000616,1.02187,-0.039189,0.157358,0.312936,0.271286,0.00077396,0.000952209,0.022620628,0.287305337,0.150031379,0.302047683
837758.875,0.000371,0.999135,-0.032104,0.130516,0.324545,0.23066,-0.001944758,0.005689837,-0.000367369,0.243264159,0.126661776,0.31677636
837768.75,-0.002318,0.977622,-0.03528,0.110705,0.331266,0.181544,0.005640352,-0.000752711,-0.021755426,0.197388516,0.107410072,0.323190089
837778.625,-0.001829,0.971266,-0.045298,0.076194,0.331266,0.120301,-0.014463994,0.003891373,-0.027791922,0.131986195,0.075892011,0.326856339
837788.5,-0.003295,0.966865,-0.036502,0.058299,0.334321,0.038442,-0.016090978,-8.22E-05,-0.032574419,0.046260719,0.058733998,0.33325269
837798.375,-0.000118,0.958309,-0.010603,0.041044,0.333099,-0.049481,0.000171814,-0.002118136,-0.041634693,-0.045328633,0.040793766,0.333720102
837808.25,0.013327,0.960754,0.005767,0.034653,0.328822,-0.125277,0.006968465,0.007534613,-0.039191077,-0.124666958,0.033497502,0.329173407
837818.125,0.021394,0.969799,0.020671,0.015481,0.322712,-0.23988,0.02193519,0.015450129,-0.030115865,-0.239399444,0.015108682,0.32308628
837878,-0.026518,0.99009,-0.03186,-0.132788,0.295216,-0.586722,-0.021529062,-0.021408252,-0.009507871,-0.584066941,-0.129099141,0.302038184
837888,-0.014295,0.988867,-0.041388,-0.141735,0.284218,-0.571563,-0.02234381,0.003104487,-0.010421113,-0.566108791,-0.136021364,0.297610434
837898,-0.012584,0.974933,-0.021109,-0.141735,0.264665,-0.544276,-0.014498389,0.00755377,-0.024894345,-0.542274644,-0.136918132,0.271227529
837908,-0.014295,0.960998,-0.002296,-0.12384,0.240836,-0.490916,-0.007409581,0.011510469,-0.038990436,-0.49178481,-0.119041652,0.241482151
837918,-0.023584,0.926039,0.019938,-0.089969,0.217617,-0.42846,0.004619388,0.009938986,-0.073511017,-0.43158341,-0.084403641,0.213638331
837928,-0.035562,0.902326,0.025313,-0.072074,0.186455,-0.345388,8.06E-05,-0.001249507,-0.096619656,-0.350067527,-0.067415027,0.179334714
837938,-0.030673,0.883258,0.027756,-0.021586,0.15957,-0.288996,0.010550835,-0.004816501,-0.115849897,-0.291918574,-0.019278315,0.154463981
837948,-0.023829,0.89597,0.017494,0.02315,0.127797,-0.21987,-1.10E-05,0.002310357,-0.103545448,-0.222516225,0.025073255,0.122754528
838009,-0.027251,0.864679,-0.001563,0.226379,-0.089114,-0.050694,-0.006804117,-0.005307525,-0.134933316,-0.051613249,0.22370005,-0.095147246
838019,-0.017718,0.872257,-0.005228,0.245552,-0.125775,-0.009461,-6.78E-05,-0.003269119,-0.127553531,-0.011458418,0.243380272,-0.12976669
838029,-0.005251,0.894259,-0.013535,0.25386,-0.157548,0.011155,-0.007171852,-0.004827318,-0.105664945,0.009198519,0.253812874,-0.157750177
838039,0.017727,0.888392,-0.002785,0.241717,-0.1826,0.017825,0.007565072,0.004230466,-0.111469066,0.015379906,0.244487838,-0.179099844
838049,0.030683,0.88937,-0.011092,0.214237,-0.197875,0.006304,0.007656659,0.006759605,-0.110090365,0.002341598,0.21947826,-0.19213422
838059,0.039727,0.915283,-0.027462,0.168861,-0.207651,-0.010067,0.002532591,0.010123466,-0.083503155,-0.01625906,0.175521482,-0.201648635
838069,0.04266,0.966621,-0.050673,0.09984,-0.214983,-0.033716,-0.007854534,0.015030973,-0.031260529,-0.04254824,0.106147456,-0.210344597
838079,0.021883,0.978355,-0.065332,0.025706,-0.220483,-0.037354,-0.02210585,-0.006007065,-0.019489476,-0.046862988,0.032220383,-0.217794812
838140,0.036549,0.859545,-0.013535,-0.147487,-0.282806,-0.074949,0.01362241,0.010428727,-0.139742885,-0.084992598,-0.138227723,-0.284637236
838150,0.027505,0.865167,-0.026729,-0.157073,-0.293194,-0.090714,0.006373747,0.011784622,-0.134086956,-0.103577345,-0.150616801,-0.292318306
838160,0.008194,0.879835,-0.041388,-0.167937,-0.301137,-0.100416,-0.000484255,-0.000119912,-0.119154107,-0.116733752,-0.16341555,-0.297721835
838170,-0.000851,0.894748,-0.05727,-0.174967,-0.310302,-0.108905,-0.007847888,-0.002541023,-0.103458582,-0.129005884,-0.172034694,-0.304175323
838180,-0.00354,0.917972,-0.063378,-0.172411,-0.328022,-0.105873,-0.003777374,-0.00331051,-0.07984965,-0.130611221,-0.169688597,-0.320436525
838190,0.001349,0.922128,-0.058736,-0.159629,-0.348796,-0.122245,0.003699738,-0.010570154,-0.076070149,-0.149488227,-0.151557116,-0.341712771
838200,0.006238,0.922861,-0.061912,-0.146208,-0.370793,-0.150744,-0.01075716,-0.004533763,-0.075117217,-0.175106033,-0.136863542,-0.363585244
838210,0.013082,0.901593,-0.047497,-0.112976,-0.397067,-0.181669,0.002655529,0.002189256,-0.097068554,-0.206459519,-0.102420553,-0.387703368
838272,0.002082,0.601878,0.112049,0.353558,-0.452669,-0.248976,0.141349813,-0.008386561,-0.404377355,-0.259046742,0.366553983,-0.436388009
838282,0.021883,0.590143,0.121333,0.429609,-0.42884,-0.300517,0.147468876,0.011551509,-0.415544,-0.30283974,0.44449866,-0.411688157
838292,0.036794,0.590877,0.10423,0.486488,-0.401955,-0.358122,0.128256428,0.025897045,-0.413286312,-0.35357324,0.504831974,-0.38291044
838302,0.049505,0.611167,0.053166,0.539532,-0.358573,-0.407237,0.078107224,0.035259381,-0.39052604,-0.396937973,0.563097164,-0.332976243
838312,0.073705,0.670573,0.007477,0.576599,-0.304192,-0.460598,0.038987109,0.052751475,-0.328543547,-0.446538492,0.605252066,-0.267250836
838322,0.09815,0.740979,-0.024041,0.586824,-0.246756,-0.504256,0.015134217,0.068353098,-0.255446389,-0.487321774,0.618481155,-0.198805414
838332,0.107438,0.795006,-0.030638,0.579155,-0.178322,-0.528511,0.0155218,0.0670091,-0.200134383,-0.508826055,0.610834354,-0.120501303
838342,0.100105,0.803073,-0.037968,0.565734,-0.127608,-0.532755,0.008276477,0.059601128,-0.19205939,-0.511085069,0.594985389,-0.070363974
838403,0.002571,0.863212,-0.029172,0.318408,0.191954,-0.117394,0.009337047,-0.034074548,-0.137014301,-0.094378729,0.314410625,0.210356741
838413,0.019438,0.860767,-0.014757,0.243635,0.234114,-0.06646,0.016040522,-0.017613592,-0.139216696,-0.048095772,0.235636077,0.246468549
838423,0.036305,0.84341,-0.011825,0.166305,0.276275,-0.017344,0.011391169,-0.007594146,-0.155837171,-0.003882408,0.152100444,0.284844562
838433,0.049016,0.833142,-0.015978,0.07875,0.322712,0.024495,-0.001619262,0.000845365,-0.165266438,0.032039498,0.058958188,0.32625451
838443,0.045838,0.825564,-0.016711,0.021232,0.372204,0.068154,0.006025412,-0.001012843,-0.173018158,0.07836203,-0.002058429,0.370792042
838453,0.045838,0.881302,-0.039434,-0.062488,0.406421,0.096653,-0.007165232,-0.008158904,-0.116692879,0.109212094,-0.089982617,0.397995514
838463,0.058549,0.940952,-0.042366,-0.152599,0.440638,0.120301,-0.017028905,-0.012174088,-0.056508963,0.128257172,-0.187868998,0.4244714
838473,0.069549,0.974444,-0.030638,-0.236959,0.466912,0.120301,-0.004216632,-0.003974033,-0.022614054,0.12713376,-0.273962899,0.444308509
838533,0.063927,0.975177,-0.034792,-0.583983,0.558565,0.083313,-0.021793476,-0.022517609,-0.02261301,0.08135739,-0.632421756,0.503384303
838543,0.080305,0.998646,-0.02453,-0.610824,0.553677,0.060271,-0.028933632,-0.005663554,0.001736101,0.052116147,-0.656705266,0.499318409
838553,0.084216,0.980311,-0.001563,-0.632553,0.541456,0.020857,-0.022202878,0.007016922,-0.016352589,0.007660221,-0.67318454,0.490404739
838563,0.055616,0.905504,0.034353,-0.624884,0.52557,-0.005217,-6.11E-05,-0.010633729,-0.092201739,-0.023057197,-0.661593659,0.478009677
838573,0.029705,0.791339,0.079309,-0.606351,0.506017,-0.002791,0.037770369,-0.020204678,-0.205295723,-0.023733467,-0.637288736,0.465856543
838583,-0.007207,0.729244,0.081997,-0.550111,0.505406,0.014794,0.04098884,-0.041619193,-0.26845368,-0.006100743,-0.573748642,0.478593226
838593,-0.023095,0.759069,0.036308,-0.481729,0.485243,0.078462,-0.002795229,-0.052321648,-0.241519922,0.061813327,-0.499106495,0.469842211
838603,-0.011607,0.826786,0.005522,-0.432519,0.470578,0.15729,-0.037262727,-0.043998344,-0.175126713,0.14039569,-0.448101522,0.461248913
838664,0.025305,0.784005,0.049746,-0.095081,0.418642,0.215501,0.016507864,-0.009162567,-0.214237704,0.199920882,-0.10957319,0.422809128
838673.875,0.049749,0.900615,0.005034,-0.064405,0.425363,0.225809,-0.024380486,0.002424541,-0.098330772,0.21399069,-0.081244867,0.428577468
838683.75,0.071016,0.962465,-0.015001,-0.041398,0.428418,0.231266,-0.037997294,0.009967273,-0.035601723,0.223020266,-0.061729611,0.43033842
838693.625,0.094972,1.011114,-0.016467,-0.040759,0.433917,0.225203,-0.038051165,0.013566761,0.014894288,0.218505419,-0.067961712,0.433933448
838703.5,0.110127,1.019914,0.013341,-0.047789,0.439416,0.193672,-0.0166543,0.014344563,0.025693606,0.184224963,-0.081793957,0.438463185
838713.375,0.099127,1.002802,0.03191,-0.061849,0.450415,0.162747,0.003330511,0.020011059,0.00799044,0.154307786,-0.09087245,0.448460547
838723.25,0.071994,0.984711,0.025557,-0.064405,0.462024,0.146981,-0.003280956,0.008163317,-0.012369176,0.137945464,-0.087823495,0.460950841
838733.125,0.019927,0.938263,0.026534,-0.073992,0.473633,0.169417,0.001380132,-0.04063526,-0.062031202,0.160507774,-0.097110433,0.472558962
838793,0.029705,1.057318,-0.056048,-0.257409,0.524348,0.458653,-0.076269982,-0.042306437,0.055622174,0.462140995,-0.267303996,0.51627228
838803,0.030927,1.081031,-0.063622,-0.302785,0.521293,0.447133,-0.076369141,-0.042593869,0.079808213,0.458273761,-0.310239896,0.507039875
838813,0.016016,1.098388,-0.105158,-0.361581,0.518238,0.44592,-0.110170738,-0.059151424,0.096418913,0.465291125,-0.365371708,0.49816039
838823,-0.008918,1.083475,-0.121772,-0.429324,0.514572,0.450771,-0.119093937,-0.081609523,0.080732412,0.478901471,-0.428720892,0.489029357
838833,-0.024073,1.077608,-0.129102,-0.48812,0.498685,0.458653,-0.119459233,-0.095489905,0.074754394,0.495229318,-0.48273371,0.468002699
838843,-0.006473,1.072719,-0.123971,-0.532217,0.490742,0.464111,-0.109964379,-0.076974299,0.071503408,0.508311192,-0.52317564,0.455399438
838853,0.016994,1.037027,-0.099294,-0.576314,0.485854,0.453803,-0.082639506,-0.048929461,0.037472753,0.505700621,-0.56490009,0.446412219
838863,0.033616,0.997668,-0.062156,-0.607629,0.4718,0.406506,-0.047591273,-0.027248515,-0.001337178,0.460765384,-0.599021093,0.431189472
838924,-0.01894,0.947797,-0.088299,-0.521991,0.343487,0.057846,-0.066439012,-0.071022752,-0.052890599,0.107148565,-0.531200199,0.316464242
838933.875,0.001594,0.945597,-0.074617,-0.50921,0.329433,0.000241,-0.049352617,-0.043522237,-0.05374736,0.051539806,-0.520449344,0.307078348
838943.75,0.017727,0.947064,-0.072418,-0.475338,0.315991,-0.049481,-0.042490589,-0.022880964,-0.05123246,0.002033331,-0.488945545,0.298618512
838953.625,0.017482,0.965887,-0.103447,-0.44594,0.299493,-0.105267,-0.066270779,-0.021754839,-0.030938851,-0.053439121,-0.462637423,0.287663966
838963.5,0.004527,0.997179,-0.152557,-0.419738,0.287884,-0.147713,-0.105850172,-0.034815089,0.002618442,-0.09542085,-0.438720458,0.281594633
838973.375,-0.011118,1.030671,-0.195559,-0.405038,0.271998,-0.162872,-0.138321763,-0.049661487,0.038773541,-0.10966319,-0.423834123,0.270008523
838983.25,-0.027495,1.073941,-0.239538,-0.39673,0.256722,-0.163478,-0.170589892,-0.06501936,0.085428612,-0.109141327,-0.414077252,0.258174621
838993.125,-0.031896,1.087631,-0.23514,-0.394174,0.234725,-0.160446,-0.164974562,-0.069162153,0.098748996,-0.107699489,-0.410942543,0.236090942
839054,-0.013562,1.035805,-0.139608,-0.256131,0.096024,-0.241093,-0.066756463,-0.032791226,0.042609529,-0.208286341,-0.278756642,0.108908527
839064,-0.015762,1.043139,-0.143761,-0.246545,0.074639,-0.240487,-0.061552706,-0.02782069,0.050948102,-0.20914817,-0.268527451,0.091320676
839074,-0.020651,1.069541,-0.162575,-0.231207,0.055086,-0.234423,-0.068458379,-0.028246633,0.079486277,-0.205327533,-0.252405817,0.074680621
839084,-0.021384,1.083475,-0.189451,-0.22929,0.04531,-0.204105,-0.084367648,-0.025803179,0.096578008,-0.175622237,-0.247377304,0.065169399
839094,-0.022851,1.096677,-0.196047,-0.231207,0.028202,-0.17318,-0.079946958,-0.022048527,0.111206274,-0.14592339,-0.246311006,0.04775557
839104,-0.02994,1.093743,-0.200934,-0.22929,0.01537,-0.125883,-0.075339843,-0.022140451,0.109674878,-0.10034449,-0.239852758,0.032531655
839114,-0.052429,1.078342,-0.206065,-0.22226,-0.010293,-0.076768,-0.071198588,-0.037251713,0.096164278,-0.055333861,-0.228744853,0.003568683
839124,-0.070518,1.05634,-0.212906,-0.205004,-0.036566,-0.016131,-0.078786631,-0.05660031,0.075520814,-0.000203352,-0.206672735,-0.030170529
839186,0.004527,1.000602,-0.165751,-0.017113,-0.14105,-0.009461,-0.034412895,0.017972711,0.013504309,-0.025954051,-0.021999299,-0.138274675
839196,-0.006229,0.999135,-0.156466,0.026984,-0.159381,-0.040992,-0.013502056,0.000734106,0.011240977,-0.065313439,0.019628714,-0.152182955
839206,-0.003784,0.999624,-0.14596,0.074277,-0.175267,-0.063428,-0.010472284,-0.005003312,0.010164383,-0.092856583,0.065950023,-0.165187635
839216,0.006482,1.004757,-0.129346,0.125404,-0.193598,-0.082831,0.014817228,-0.004656007,0.01295005,-0.120618096,0.117088901,-0.178350182
839226,0.010882,1.030671,-0.14425,0.166305,-0.199097,-0.094959,0.017252893,-0.001323679,0.04062951,-0.139195017,0.156898892,-0.179782271
839236,0.01626,1.052673,-0.165995,0.202733,-0.210095,-0.114362,0.01284553,-0.000493942,0.065726945,-0.165325311,0.192182268,-0.184533907
839246,0.020416,1.066852,-0.179922,0.215515,-0.21865,-0.134373,0.003166819,0.02184374,0.081884814,-0.187471322,0.200089947,-0.192689276
839256,0.012105,1.073208,-0.182854,0.222545,-0.230259,-0.148319,0.002077457,0.013416159,0.088656612,-0.203736449,0.205746805,-0.201751633
839318,-0.006718,1.114767,-0.18603,0.229575,-0.268142,-0.062215,0.022192404,-0.007670971,0.129958588,-0.128959651,0.220287996,-0.251630933
839327.875,0.001838,1.138236,-0.204843,0.191229,-0.26692,-0.050088,0.02112681,-0.006423904,0.156312076,-0.116239701,0.184665996,-0.250420499
839337.75,0.00746,1.142881,-0.219747,0.144576,-0.261421,-0.049481,-0.001297479,0.013144087,0.163764119,-0.10873021,0.1353179,-0.248109523
839347.625,0.005505,1.067096,-0.209485,0.088336,-0.269364,-0.056151,-0.015302257,0.002790206,0.087366635,-0.10983691,0.080687539,-0.25483038
839357.5,0.003794,1.103033,-0.199224,0.02315,-0.276696,-0.062215,-0.011516361,0.006980869,0.12080553,-0.109166583,0.014334866,-0.262382305
839367.375,-0.004762,1.077364,-0.178211,-0.020308,-0.272419,-0.062215,-0.007068425,0.005964806,0.091975038,-0.102408103,-0.030188704,-0.259029835
839377.25,-0.014295,1.045339,-0.15891,-0.056097,-0.278529,-0.047662,-0.004934451,0.001676581,0.057432362,-0.083533296,-0.065966957,-0.267707849
839387.125,-0.018451,1.021381,-0.143028,-0.072074,-0.286473,-0.033109,0.007562478,-0.002052149,0.031482037,-0.069244487,-0.081173949,-0.277441234
839449,0.038994,0.985445,-0.129102,-0.063127,-0.282806,-0.121639,0.005475689,0.044574003,-0.006383937,-0.155083078,-0.074605985,-0.262951486
839459,0.028971,0.962954,-0.115664,-0.042037,-0.283417,-0.156808,0.007510285,0.028223302,-0.03013149,-0.189043884,-0.05345967,-0.260932036
839469,0.026038,0.951464,-0.098805,-0.013917,-0.282806,-0.184701,0.015905533,0.01732635,-0.043354318,-0.216473958,-0.024156671,-0.258539855
839479,0.028727,0.957087,-0.10418,0.013563,-0.280973,-0.199254,0.005022986,0.009943402,-0.036895573,-0.230665974,0.005556624,-0.256113784
839489,0.024327,0.968088,-0.109067,0.038488,-0.280973,-0.216232,0.009377461,-0.004580751,-0.025539704,-0.250831839,0.032586602,-0.251405912
839499,0.030194,0.993757,-0.119329,0.062773,-0.284639,-0.230785,0.01067829,-0.0089579,0.00125411,-0.269041719,0.059005707,-0.249712648
839509,0.036549,1.007936,-0.126658,0.075555,-0.282806,-0.244125,-0.005465603,-0.003975866,0.016497604,-0.279953544,0.071776917,-0.248513369
839519,0.041194,1.018692,-0.131056,0.087058,-0.287695,-0.25322,-0.008753401,6.50E-05,0.027876153,-0.290127434,0.082933205,-0.2518254
839581,0.035816,1.044605,-0.160131,0.140742,-0.30297,-0.138011,-0.020835554,-0.006673193,0.057187626,-0.183500988,0.143440337,-0.27640265
839590.875,0.047549,1.07003,-0.175768,0.132433,-0.303581,-0.107692,-0.019991044,0.002541932,0.085225043,-0.156288994,0.137369603,-0.279286291
839600.75,0.051705,1.075408,-0.183098,0.111983,-0.294416,-0.067672,-0.013836218,0.001561902,0.092019583,-0.117421773,0.120066971,-0.274948218
839610.625,0.05806,1.073208,-0.182854,0.083863,-0.296249,-0.033109,-0.006598588,-0.006112181,0.090183957,-0.084186569,0.097563471,-0.281578887
839620.5,0.062705,1.063918,-0.173081,0.066608,-0.299915,0.000847,-0.00868464,0.00803065,0.079662237,-0.04772805,0.079900909,-0.292787002
839630.375,0.052683,1.038738,-0.159154,0.057021,-0.306025,0.02207,-0.009501102,-0.003219686,0.052131878,-0.024005097,0.072402285,-0.30260774
839640.25,0.054883,1.016003,-0.141807,0.041683,-0.306636,0.063303,-0.006582843,0.001703732,0.027296076,0.020643599,0.058349983,-0.309741021
839650.125,0.049749,1.007202,-0.119817,0.040405,-0.317023,0.094227,0.014174447,-0.002234226,0.015421606,0.049930364,0.058649404,-0.324163663
839711,0.054394,0.96711,-0.058003,0.045518,-0.331077,0.192459,0.059970266,0.003610711,-0.031488081,0.149073204,0.068291432,-0.349052711
839721,0.056838,0.971999,-0.052139,0.058299,-0.331688,0.188821,0.056352649,0.003236117,-0.026580771,0.148915097,0.081360667,-0.346805145
839731,0.059038,0.984956,-0.051161,0.065329,-0.330466,0.181544,0.048652128,0.002772809,-0.013153235,0.145486444,0.088234661,-0.342756792
839741,0.057083,0.995712,-0.050184,0.074916,-0.331688,0.180938,0.040616185,-0.000577092,-0.002217818,0.148389428,0.097583014,-0.341798229
839751,0.054394,1.005246,-0.055315,0.08578,-0.330466,0.1773,0.026389684,-0.002873843,0.00788556,0.148436546,0.107392286,-0.338282078
839761,0.049994,1.003535,-0.056292,0.098562,-0.329855,0.177906,0.015930181,-0.003074451,0.00622436,0.152446064,0.118232315,-0.336081316
839771,0.046572,1.002313,-0.061179,0.111983,-0.323134,0.167598,0.002032234,-0.000688298,0.005255474,0.145845795,0.128758366,-0.327406706
839781,0.048038,1.003046,-0.065088,0.105592,-0.318245,0.174268,-0.001834725,0.000697492,0.006300911,0.152865722,0.122223771,-0.323252698
839842,0.042416,1.062451,-0.107845,0.101757,-0.229648,0.156077,-0.02782312,-0.006699284,0.068369216,0.137764317,0.113472538,-0.235791639
839851.875,0.041927,1.064163,-0.104669,0.090254,-0.21315,0.14395,-0.011784255,-0.005831297,0.070039014,0.124564366,0.100587738,-0.220604023
839861.75,0.043394,1.055851,-0.104913,0.076833,-0.201541,0.125152,-0.001436711,0.002636409,0.061933188,0.104828871,0.085029714,-0.209680622
839871.625,0.038749,1.04485,-0.102714,0.060856,-0.189932,0.100291,-0.011490829,-0.001885678,0.050536805,0.083437148,0.068421251,-0.195429467
839881.5,0.039971,1.036783,-0.099538,0.055743,-0.176489,0.066335,0.003097089,-0.001959352,0.04231044,0.048785182,0.062898602,-0.179776954
839891.375,0.041683,1.031404,-0.10247,0.045518,-0.159992,0.029346,0.011074416,0.005038359,0.037248166,0.011880118,0.051162763,-0.160535823
839901.25,0.038749,1.04045,-0.110533,0.031458,-0.143494,-0.000972,0.004929914,-0.014178765,0.046914462,-0.016585993,0.038712161,-0.140738595
839911.125,0.044616,1.043139,-0.115175,0.027623,-0.139828,-0.039173,0.000645986,-0.008455421,0.050391798,-0.054172404,0.034700928,-0.133081253
839972,0.065638,1.016003,-0.10809,-0.033729,-0.073227,-0.292028,-0.005641029,0.009750192,0.02378074,-0.298064686,-0.029665218,-0.045360884
839981.875,0.06026,1.017225,-0.101493,-0.031812,-0.061618,-0.324772,-0.010077524,0.002519726,0.023997506,-0.329129394,-0.028270572,-0.034062438
839991.75,0.062705,1.020159,-0.089765,-0.031173,-0.053675,-0.359334,-0.008192679,0.00027002,0.025985801,-0.362601318,-0.027924089,-0.026724792
840001.625,0.063927,1.018936,-0.08439,-0.024143,-0.046343,-0.378738,-0.013789386,-0.000235413,0.024328416,-0.381123459,-0.021307826,-0.021538713
840011.5,0.065394,1.022603,-0.076571,-0.014556,-0.035344,-0.39511,0.002826224,-0.005701635,0.027529023,-0.396721581,-0.012378278,-0.005635014
840021.375,0.073949,1.035805,-0.07877,-0.006248,-0.029845,-0.397535,0.012978976,0.001633413,0.041342424,-0.398646884,-0.004508756,0.004916338
840031.25,0.075172,1.044116,-0.087811,0.006533,-0.021902,-0.390865,0.005284703,-0.010494056,0.050429326,-0.391231518,0.007468286,0.013414545
840041.125,0.078349,1.060985,-0.094163,0.010368,-0.016403,-0.36843,0.000466237,-0.008718136,0.067997277,-0.368378674,0.010889292,0.017198682
840103,0.071749,1.135302,-0.104669,0.079389,-0.037177,-0.038567,-0.001589441,-0.003710259,0.142365028,-0.04130981,0.08166589,-0.028219465
840112.875,0.077127,1.153393,-0.103692,0.084502,-0.045121,0.032985,-0.00103919,-0.018278655,0.160465781,0.029387305,0.087972096,-0.040765174
840122.75,0.081527,1.168061,-0.105402,0.090254,-0.055508,0.085738,-0.0086575,-0.002161986,0.175603295,0.081448581,0.093965953,-0.055807308
840132.625,0.092283,1.186396,-0.102226,0.093449,-0.055508,0.130003,-0.002674189,-0.013626927,0.194281764,0.125590159,0.09807364,-0.057648128
840142.5,0.099127,1.211576,-0.100516,0.087697,-0.06284,0.176087,0.008309077,0.005789686,0.219730901,0.170522379,0.092033101,-0.071402292
840152.375,0.101572,1.22331,-0.105402,0.081946,-0.067117,0.203373,0.018781245,-0.000118754,0.231893283,0.196421939,0.086913715,-0.080279784
840162.25,0.099372,1.242134,-0.122016,0.073637,-0.067117,0.227628,0.01843181,-0.000891196,0.251926135,0.219571186,0.078200286,-0.086109323
840172.125,0.097905,1.256802,-0.142295,0.072998,-0.071394,0.249457,-0.000100834,-0.003482737,0.268610414,0.240778101,0.077849744,-0.092843576
840233,0.077616,1.254357,-0.141318,-0.088051,-0.073838,0.261585,-0.003575978,-0.006507671,0.264654643,0.250915861,-0.084239,-0.107595365
840243,0.076883,1.248734,-0.137898,-0.109141,-0.073227,0.238543,0.00104529,0.01010073,0.258634315,0.227552177,-0.106850062,-0.10478447
840253,0.074683,1.242378,-0.137898,-0.129592,-0.06895,0.215501,-0.011929481,-0.007718211,0.252155989,0.205692147,-0.126251547,-0.098692236
840263,0.075416,1.232111,-0.129835,-0.145569,-0.063451,0.189427,-0.01514815,0.007728303,0.241109594,0.180704571,-0.143537795,-0.088553435
840273,0.073216,1.212065,-0.119084,-0.161546,-0.053064,0.169417,-0.013466806,-0.013429932,0.219951404,0.161848351,-0.158721944,-0.078914347
840283,0.072483,1.194952,-0.109311,-0.176245,-0.048787,0.1488,-0.003354598,0.00398974,0.202117212,0.141240685,-0.174633764,-0.071680046
840293,0.073949,1.185418,-0.105646,-0.179441,-0.03901,0.124546,-0.009867993,-0.011461924,0.192315652,0.118278135,-0.177310706,-0.06167459
840303,0.072483,1.179795,-0.10247,-0.178802,-0.029234,0.105142,-0.007172231,-0.012545345,0.186364742,0.099725371,-0.177198992,-0.050348683
840364,0.004527,1.137991,-0.087078,-0.198613,0.019036,0.248244,0.000739941,-0.062511882,0.139613226,0.245889687,-0.202061953,-0.011991904
840374,-0.000118,1.127724,-0.087322,-0.211395,0.019036,0.288265,-0.00408427,-0.052079002,0.129892766,0.285601349,-0.215478597,-0.012156034
840384,-0.003295,1.110856,-0.081214,-0.222899,0.020869,0.311913,-0.003133711,-0.040435331,0.113087053,0.309135003,-0.227529437,-0.008666245
840394,-0.001829,1.102544,-0.077549,-0.226733,0.015981,0.32404,-0.004887909,-0.024936059,0.104977269,0.320834536,-0.231572391,-0.010227197
840404,0.000616,1.106211,-0.073151,-0.233763,0.009871,0.324647,-0.002654829,-0.008394719,0.108592218,0.320934951,-0.238697873,-0.012741038
840414,-0.000851,1.093254,-0.072662,-0.255492,0.01537,0.318583,0.00034451,0.002168529,0.095664172,0.314847559,-0.260483675,-0.005176533
840424,-0.001584,1.084698,-0.073395,-0.263161,0.010482,0.303424,0.003062592,0.012618478,0.087101872,0.299235501,-0.268017591,-0.00737522
840434,-0.006229,1.076386,-0.073395,-0.275943,0.014148,0.291296,0.002404956,0.007874957,0.078871933,0.28719596,-0.280551694,-0.002700481
840495,0.017971,1.073941,-0.143761,-0.350716,0.032479,-0.040386,-0.059382862,0.030436431,0.081613033,-0.043055059,-0.349702821,0.039266092
840505,0.010394,1.06514,-0.160131,-0.368611,0.033701,-0.085863,-0.068402909,0.021413489,0.074772393,-0.088049187,-0.366966043,0.044334476
840515,0.006971,1.05145,-0.160376,-0.380114,0.035534,-0.13316,-0.061881839,0.01670652,0.061700376,-0.134612386,-0.377847374,0.050909439
840525,0.006482,1.040938,-0.158177,-0.380114,0.031257,-0.174999,-0.052877764,0.015001917,0.051471723,-0.176086069,-0.377404696,0.051455757
840535,0.005994,1.046561,-0.154267,-0.383949,0.030646,-0.207743,-0.040562137,0.01333308,0.057024647,-0.208169299,-0.380946818,0.055301275
840545,0.006971,1.04485,-0.156711,-0.37628,0.026368,-0.231391,-0.03517598,0.013359062,0.055889502,-0.231426445,-0.373155093,0.054961643
840555,0.008194,1.052917,-0.163063,-0.360942,0.023313,-0.269592,-0.032999646,0.011129193,0.06493101,-0.268930904,-0.357679327,0.056957336
840565,0.017727,1.040205,-0.160864,-0.343047,0.019647,-0.304761,-0.03225977,0.020623321,0.052022766,-0.304072101,-0.339369666,0.057575199
840789,0.040216,0.922861,-0.059224,0.314573,-0.053064,0.012368,0.048758024,0.033424514,-0.076256155,0.009962734,0.314831209,-0.05202866
840798.875,0.049505,0.923106,-0.062401,0.281341,-0.048176,0.006911,0.040289879,0.03351638,-0.074947193,0.005054088,0.282075366,-0.043924839
840808.75,0.068327,0.932396,-0.05898,0.247469,-0.033511,-0.022195,0.039626092,0.042364696,-0.065043035,-0.022504308,0.248520495,-0.024241099
840818.625,0.083972,0.939974,-0.05727,0.210402,-0.021902,-0.062215,0.036585064,0.048201288,-0.056485061,-0.061496221,0.211607315,-0.007743685
840828.5,0.087638,0.93484,-0.056048,0.17014,-0.015181,-0.099203,0.030368275,0.044520666,-0.060934879,-0.098162236,0.171407363,0.001734599
840838.375,0.079327,0.921639,-0.051161,0.137546,-0.00846,-0.153776,0.025220735,0.033773942,-0.074499107,-0.15240942,0.138884809,0.010950362
840848.25,0.057572,0.898415,-0.049696,0.111983,-0.004182,-0.190765,0.016612454,0.02204372,-0.09879423,-0.189363236,0.113526992,0.014218065
840858.125,0.03606,0.88448,-0.063622,0.090254,-0.004793,-0.200466,0.001479321,0.001213057,-0.112503919,-0.199312844,0.091915083,0.013467827
840919,0.048038,0.91675,-0.072662,-0.070796,-0.016403,-0.154383,-0.011867797,0.025111937,-0.079540047,-0.155866189,-0.068974014,-0.007972414
840929,0.026527,0.898415,-0.061423,-0.075909,-0.027401,-0.134373,0.003765768,0.016118243,-0.099249202,-0.136823398,-0.074203135,-0.018502615
840939,0.006971,0.896459,-0.06802,-0.07527,-0.034122,-0.104661,0.005969734,0.001541209,-0.100958265,-0.107969859,-0.073880485,-0.025845545
840949,0.002571,0.908682,-0.083168,-0.06824,-0.046954,-0.059183,0.001424422,-0.000917989,-0.087517873,-0.064107638,-0.067304974,-0.041524141
840959,0.003305,0.936796,-0.089765,-0.072713,-0.065895,-0.001578,0.004139119,-0.011473861,-0.058986375,-0.009095812,-0.071567437,-0.06653713
840969,0.015771,0.942663,-0.096362,-0.07527,-0.081782,0.056633,-0.010228624,-0.010426345,-0.052405911,0.047923023,-0.073511842,-0.088659788
840979,0.021394,0.917483,-0.087078,-0.077187,-0.09278,0.101504,-0.013306651,0.000986829,-0.078242279,0.092611807,-0.076317838,-0.102311604
840989,0.017727,0.886436,-0.070219,-0.07527,-0.115999,0.133035,0.000965912,-0.002171896,-0.110613646,0.122216055,-0.074271797,-0.127931967
841051,0.001105,0.834365,-0.032837,0.067247,-0.247978,0.39074,0.025374573,-0.019950977,-0.165612481,0.37364746,0.067422692,-0.273010533
841060.875,0.010638,0.814808,-0.005228,0.090254,-0.26081,0.394379,0.044275133,-0.009084411,-0.186360177,0.379650102,0.089047796,-0.282203343
841070.75,-0.004029,0.80454,-0.008404,0.121569,-0.283417,0.383464,0.035268953,-0.017214169,-0.196363736,0.370243239,0.117526642,-0.302086559
841080.625,-0.013807,0.816274,-0.027217,0.150328,-0.306636,0.368305,0.014038784,-0.018111365,-0.18347717,0.356119054,0.142352533,-0.324326522
841090.5,-0.014784,0.846099,-0.035525,0.169501,-0.324967,0.343444,0.016822488,-0.01452285,-0.153318123,0.327551028,0.159243674,-0.345889718
841100.375,-0.017718,0.907705,-0.070463,0.184839,-0.354296,0.319189,-0.002788941,-0.014908805,-0.089518107,0.297909319,0.17355082,-0.377760347
841110.25,-0.012584,0.938996,-0.085856,0.194425,-0.380569,0.287052,-0.003484877,-0.009721123,-0.057059677,0.259819606,0.183348351,-0.404857814
841120.125,-0.006962,0.963932,-0.095629,0.1842,-0.413564,0.242181,-0.010805704,-0.003737238,-0.031378533,0.211862923,0.174886279,-0.433757248
841181,-0.015518,0.936796,-0.105158,0.150967,-0.529658,0.059665,-0.014463062,-0.022257872,-0.05756636,0.014646685,0.15462641,-0.531756234
841191,0.00306,0.947797,-0.087811,0.145854,-0.540045,0.012974,-0.003888209,0.001364679,-0.048147959,-0.027363143,0.148456835,-0.53879694
841201,0.00526,0.959287,-0.088788,0.154802,-0.547377,-0.042205,-0.001448445,0.020241424,-0.036812214,-0.082866341,0.15119953,-0.543726377
841211,-0.063673,0.951464,-0.08268,0.180365,-0.557764,-0.095565,-0.000696408,-0.032494336,-0.043382203,-0.134142839,0.170831317,-0.552799459
841221,-0.024318,0.93973,-0.082191,0.202733,-0.564486,-0.148925,0.008141054,0.022316654,-0.056668198,-0.189461492,0.187990679,-0.557393592
841231,-0.043384,0.934107,-0.085856,0.250025,-0.572429,-0.182882,0.009512615,0.019404993,-0.061201689,-0.223580987,0.228724194,-0.566859835
841241,-0.059518,0.942419,-0.091964,0.280063,-0.579761,-0.184095,-0.003599592,0.012346033,-0.051323048,-0.217751433,0.254682678,-0.579801791
841251,-0.068318,0.932884,-0.084634,0.320325,-0.584649,-0.164691,0.002059386,0.002335388,-0.060801871,-0.195864274,0.292745556,-0.58947681
841313,-0.020651,0.68084,0.013585,0.563817,-0.488108,0.043293,0.075198696,0.019947486,-0.323168134,0.044048767,0.526829951,-0.527752993
841322.875,-0.005984,0.687685,0.007477,0.572764,-0.452058,0.043899,0.067860284,0.030338787,-0.316277167,0.053503205,0.541124772,-0.488532031
841332.75,0.000127,0.696242,-9.70E-05,0.570847,-0.409898,0.029953,0.058808986,0.031180056,-0.306947148,0.04720648,0.546540626,-0.440278029
841342.625,0.010394,0.710665,-0.010359,0.544644,-0.353073,0.000847,0.049034221,0.034439691,-0.29171359,0.023457987,0.530197359,-0.373682794
841352.5,0.017727,0.7312,-0.030149,0.511412,-0.306025,-0.034322,0.030478078,0.034714433,-0.269423075,-0.008732004,0.50630226,-0.316153931
841362.375,0.024327,0.751002,-0.039434,0.450699,-0.262032,-0.056151,0.022678722,0.032057654,-0.248595429,-0.031542728,0.452691224,-0.262714682
841372.25,0.027994,0.76347,-0.047985,0.383595,-0.201541,-0.07313,0.014242691,0.025916275,-0.235082908,-0.049387656,0.390774546,-0.194853815
841382.125,0.028971,0.786205,-0.052872,0.302431,-0.144716,-0.082831,0.011251282,0.027178462,-0.212035655,-0.062811776,0.310497741,-0.137528319
841443,0.002082,0.871035,-0.067776,-0.202448,0.182178,0.032378,-0.002153729,0.014504932,-0.126452714,0.025711621,-0.203470757,0.182101386
841453,-0.004518,0.878369,-0.06802,-0.280417,0.231059,0.078462,0.004154237,0.004396273,-0.119010416,0.069877165,-0.286067427,0.226849839
841463,-0.008184,0.910394,-0.092941,-0.337934,0.275053,0.116663,-0.01421198,-0.006822518,-0.08497338,0.108067825,-0.349483601,0.263905958
841473,0.003794,0.933129,-0.090987,-0.40376,0.303159,0.142737,-0.019314639,-0.009540165,-0.062685384,0.128520824,-0.421598621,0.284672389
841483,0.019194,0.927751,-0.074373,-0.447218,0.342876,0.139099,-0.015654579,-0.004633829,-0.069217999,0.120923474,-0.468158285,0.321125763
841493,0.034838,0.926284,-0.053116,-0.479173,0.377704,0.11545,-0.007814186,0.002746036,-0.071577444,0.093219176,-0.501223134,0.354515632
841503,0.045349,0.908438,-0.029172,-0.483646,0.414365,0.074824,0.001401573,0.008734964,-0.090006114,0.049897904,-0.505087892,0.391927109
841513,0.044616,0.866145,-0.007183,-0.472143,0.438194,0.036016,0.022003035,0.008150182,-0.132994357,0.012809014,-0.491723442,0.417461533
841574,-0.019918,0.929951,-0.051406,-0.229929,0.583006,0.274925,-0.023974952,-0.044054856,-0.069767482,0.27580067,-0.265907656,0.567075132
841584,-0.011851,0.928729,-0.037479,-0.202448,0.589116,0.301605,-0.014753571,-0.026484811,-0.070934037,0.3025684,-0.232278527,0.577501064
841594,-0.027251,0.900371,-0.012802,-0.174967,0.592171,0.336168,0.001002767,-0.035233645,-0.099815557,0.335329069,-0.20021664,0.584599505
841604,-0.061718,0.832409,0.023847,-0.140457,0.595226,0.379826,0.029722762,-0.063307367,-0.167899484,0.37837527,-0.160730915,0.59100565
841614,-0.099607,0.815541,0.030199,-0.093164,0.593393,0.454409,0.037681958,-0.09367429,-0.184067494,0.458341648,-0.109343633,0.587579123
841624,-0.105474,0.960754,-0.039189,-0.06121,0.587283,0.554459,-0.019853458,-0.094087403,-0.03747094,0.565740789,-0.078379036,0.574340366
841634,-0.080051,1.082498,-0.104425,-0.052902,0.588505,0.637531,-0.069381747,-0.068769612,0.086080834,0.655381079,-0.07174597,0.566489796
841644,-0.04754,1.116723,-0.119817,-0.073992,0.583006,0.699987,-0.082398948,-0.035490404,0.120552216,0.716813905,-0.095107144,0.55900364
841705,-0.079074,0.827764,0.023114,-0.060571,0.508461,0.555672,0.04819331,-0.065318637,-0.172116509,0.570147931,-0.069163783,0.491040236
841715,-0.057807,0.904038,-0.02624,-0.037564,0.502962,0.531417,0.011749545,-0.040874739,-0.09473424,0.551710557,-0.042681525,0.480187052
841725,-0.031407,0.964421,-0.057758,-0.030534,0.505406,0.476238,-0.006573088,-0.010520146,-0.033420271,0.501931337,-0.030647124,0.479891518
841735,-0.032629,0.957331,-0.063866,-0.037564,0.509072,0.396198,-0.016109026,-0.000335079,-0.040121597,0.420671865,-0.027933121,0.489686771
841745,-0.041673,0.904526,-0.043832,-0.051624,0.506628,0.322828,-0.005066189,-0.001876368,-0.093470364,0.343876377,-0.033845052,0.494123907
841755,-0.058785,0.872746,-0.028439,-0.058653,0.507239,0.221564,0.000175761,-0.014669878,-0.124937261,0.237897265,-0.034944041,0.502001981
841765,-0.06074,0.875435,-0.010848,-0.050345,0.510294,0.130003,0.008046282,-0.014494932,-0.122549933,0.14095381,-0.023799887,0.5093142
841775,-0.055607,0.901348,0.009676,-0.045233,0.510905,0.039048,0.029138646,-0.008068808,-0.097392769,0.05004409,-0.018374517,0.511617685
841836,-0.130407,0.92115,0.017739,-0.034368,0.484632,-0.305368,0.030761927,-0.068034314,-0.072496352,-0.298567749,-0.002091748,0.49005293
841846,-0.129429,0.952931,0.032643,-0.026699,0.479744,-0.331442,0.040108252,-0.049095814,-0.039856338,-0.32792142,0.011523976,0.48275841
841856,-0.121118,1.026759,0.012119,-0.022226,0.463246,-0.345994,0.028267365,-0.018975024,0.033388305,-0.339029721,0.020074637,0.46846404
841866,-0.110363,1.087631,-0.021109,-0.027977,0.44736,-0.362366,0.007996407,-0.000880485,0.093390166,-0.350533225,0.011737448,0.457396426
841876,-0.105718,1.106455,-0.037479,-0.04715,0.444916,-0.370249,0.000377543,0.022004056,0.111907962,-0.354647999,-0.002444948,0.459865753
841886,-0.123563,1.087631,-0.039189,-0.067601,0.437583,-0.370249,-0.008007739,0.021183992,0.095094471,-0.356991881,-0.017267666,0.453201637
841896,-0.149474,1.069296,-0.027706,-0.0823,0.429029,-0.353877,-0.004174685,0.01059031,0.079988172,-0.343565998,-0.026988458,0.444187046
841906,-0.165363,1.042894,-0.017444,-0.091247,0.421086,-0.324772,0.006082523,-0.008769692,0.056012881,-0.314354224,-0.036235995,0.437017919
841968,-0.107429,1.019181,-0.013779,-0.171772,0.347153,-0.12649,-0.002692068,0.036006908,0.02428366,-0.118348292,-0.125227375,0.369232084
841977.875,-0.122096,0.96711,-0.00083,-0.185832,0.331877,-0.114362,-0.001936873,0.016773406,-0.025359156,-0.109880449,-0.140479941,0.354889018
841987.75,-0.138229,0.955131,0.009676,-0.181358,0.310492,-0.087682,-0.002805841,-0.001679441,-0.034875441,-0.086946599,-0.138856841,0.3318783
841997.625,-0.136029,0.954153,0.00992,-0.171772,0.290328,-0.06464,-0.00328942,-0.014372794,-0.036261008,-0.063715314,-0.136293119,0.308769885
842007.5,-0.116229,0.956842,0.012608,-0.164103,0.279941,-0.051907,-0.00470395,-0.00856875,-0.036091703,-0.051734653,-0.134024868,0.295553642
842017.375,-0.094474,0.952442,0.018716,-0.150682,0.264665,-0.057364,-0.002731389,-0.000950155,-0.042705361,-0.058014744,-0.126766596,0.276781096
842027.25,-0.072473,0.947064,0.024336,-0.131509,0.253667,-0.091321,0.000240428,0.007232026,-0.049882935,-0.09267033,-0.114210673,0.26143684
842037.125,-0.047051,0.959776,0.026046,-0.13087,0.240836,-0.156202,0.000455334,0.033669317,-0.03930841,-0.157119465,-0.117655596,0.246979018
842098,-0.084696,1.02627,-0.016956,-0.122562,0.199897,-0.430886,-0.032962933,-0.001525548,0.029369782,-0.428472099,-0.126572405,0.20256872
842108,-0.063429,1.080053,-0.023308,-0.1379,0.185233,-0.421184,-0.032760768,0.018232539,0.081515275,-0.415989902,-0.144292075,0.191978736
842118,-0.037762,1.1133,-0.034547,-0.164103,0.179123,-0.418758,-0.038287513,0.038211558,0.113162296,-0.410609593,-0.172789889,0.189516549
842128,-0.024073,1.110367,-0.035769,-0.199892,0.181567,-0.425428,-0.034549068,0.042448713,0.109855069,-0.414028189,-0.210986667,0.194878566
842138,-0.013562,1.087142,-0.03186,-0.22929,0.173013,-0.444832,-0.025965989,0.04299164,0.086533111,-0.430431233,-0.244173863,0.188390522
842148,-0.016251,1.050228,-0.030149,-0.266996,0.171791,-0.447864,-0.016428087,0.035712646,0.050050777,-0.42940194,-0.283259476,0.191726933
842158,-0.030673,1.027737,-0.041388,-0.28489,0.162014,-0.436343,-0.018642905,0.021163539,0.028640699,-0.414912001,-0.301385012,0.186604308
842168,-0.039962,1.035071,-0.062401,-0.298311,0.160181,-0.410269,-0.038901753,0.011041488,0.036931801,-0.388115218,-0.313310157,0.184855027
842230,0.058794,1.004269,0.021892,-0.302785,0.130852,-0.395716,0.031175474,0.103111335,0.000444082,-0.374516032,-0.320542946,0.14960654
842239.875,0.058794,0.9874,0.01725,-0.287447,0.13513,-0.449683,0.022086156,0.091776627,-0.015214587,-0.429439928,-0.31060049,0.149028115
842249.75,0.059283,0.977622,-0.000586,-0.265718,0.130852,-0.519415,0.001262439,0.080821373,-0.023923208,-0.500445679,-0.295592206,0.14035531
842259.625,0.052194,0.99449,-0.004739,-0.246545,0.124131,-0.569743,-0.002552524,0.064162362,-0.006202381,-0.551609255,-0.281829435,0.13076478
842269.5,0.039238,1.022359,-0.013535,-0.239515,0.11741,-0.6037,-0.004539208,0.045561417,0.022176254,-0.584968415,-0.27844407,0.126043989
842279.375,0.027994,1.051695,-0.033326,-0.232485,0.106412,-0.61037,-0.015773369,0.030270587,0.052041611,-0.591110662,-0.272885937,0.11851488
842289.25,0.021638,1.064896,-0.040411,-0.225455,0.095413,-0.614008,-0.014599367,0.020577069,0.065583495,-0.594414596,-0.266972111,0.111070255
842299.125,0.021149,1.061473,-0.044565,-0.231207,0.074639,-0.598849,-0.018795953,0.019797981,0.062267858,-0.579431339,-0.271702906,0.089914607
842360,0.045105,1.199597,-0.093919,-0.270191,-0.054286,-0.27323,-0.056592556,0.036453942,0.202229843,-0.255869463,-0.28808825,-0.046268319
842369.875,0.043149,1.185173,-0.106624,-0.290642,-0.07506,-0.198647,-0.060304688,0.027877902,0.188886757,-0.181641384,-0.302852818,-0.069670542
842379.75,0.052194,1.156326,-0.112732,-0.293198,-0.101334,-0.115575,-0.059351781,0.029569793,0.16108808,-0.100863687,-0.298886849,-0.100421091
842389.625,0.055372,1.116967,-0.108578,-0.303424,-0.123942,-0.04463,-0.049068648,0.0248908,0.122249186,-0.031979608,-0.303044774,-0.128688577
842399.5,0.055127,1.082253,-0.097584,-0.302146,-0.14655,0.029346,-0.032421778,0.015669405,0.087444931,0.038755948,-0.295024703,-0.158394119
842409.375,0.050483,1.063918,-0.082191,-0.284251,-0.169768,0.08877,-0.008465337,0.008763627,0.06821203,0.093182407,-0.27217686,-0.186377879
842419.25,0.040705,1.052917,-0.082435,-0.251019,-0.185655,0.167598,-0.020026114,0.008197194,0.056701659,0.170140124,-0.235669142,-0.202681525
842429.125,0.036794,1.042161,-0.070219,-0.219703,-0.211928,0.248851,-0.008286067,0.005302082,0.045125488,0.247686504,-0.198900362,-0.232808392
842491,0.057083,0.958798,-0.055804,0.010368,-0.321912,0.395591,-0.00117482,0.010403529,-0.037941506,0.374412419,0.047442561,-0.34320783
842500.875,0.056594,0.966376,-0.052872,0.037849,-0.342686,0.373762,-0.004530496,-0.003897532,-0.030543871,0.352701926,0.078349321,-0.357808621
842510.75,0.056838,0.985445,-0.049451,0.053187,-0.343908,0.352539,0.001134712,0.007883341,-0.011711392,0.330561665,0.086836387,-0.35857181
842520.625,0.048772,0.998646,-0.050673,0.061495,-0.35674,0.339199,0.008564646,0.008741186,0.001044721,0.313711023,0.090333435,-0.373532179
842530.5,0.045349,1.003535,-0.054582,0.068525,-0.36285,0.312519,0.017116434,0.004255223,0.005886248,0.282267594,0.095543508,-0.381077901
842540.375,0.039483,1.015514,-0.072418,0.063412,-0.368349,0.300998,0.012437135,-0.002579209,0.018778987,0.266361757,0.089043146,-0.389133134
842550.25,0.04046,1.016981,-0.082191,0.060217,-0.372626,0.282807,0.01192172,0.005980967,0.021011668,0.244806553,0.08126613,-0.394869079
842560.125,0.039238,1.027004,-0.089032,0.04424,-0.375681,0.280382,0.006086998,0.004218115,0.031575828,0.242596602,0.065319541,-0.398230717
842621,0.020905,1.117945,-0.153046,-0.088691,-0.335965,0.278563,-0.037538475,-0.017629904,0.127803693,0.244737872,-0.070039315,-0.365422753
842630.875,0.020905,1.112567,-0.162575,-0.133427,-0.321912,0.276137,-0.036853639,-0.016578064,0.123850504,0.241204514,-0.116352873,-0.354914263
842640.75,0.022616,1.1111,-0.171126,-0.164103,-0.301748,0.258553,-0.035808074,-0.010798543,0.123806022,0.223338551,-0.150005986,-0.335334757
842650.625,0.012349,1.109144,-0.170637,-0.190305,-0.285251,0.250064,-0.02624631,-0.015296486,0.121849832,0.214292408,-0.179065123,-0.319578748
842660.5,0.002327,1.107922,-0.180166,-0.206283,-0.271197,0.236117,-0.026885793,-0.019314397,0.121989514,0.199586754,-0.197829927,-0.304762488
842670.375,-0.002806,1.108655,-0.186763,-0.221621,-0.253478,0.222777,-0.024278199,-0.019032619,0.123856098,0.18614712,-0.215559537,-0.286146626
842680.25,-0.009895,1.110122,-0.203133,-0.232485,-0.235758,0.214288,-0.030806683,-0.021810314,0.127965886,0.177640533,-0.228242338,-0.268141256
842690.125,-0.008184,1.108655,-0.20973,-0.229929,-0.216817,0.195491,-0.037564599,-0.020151567,0.127542627,0.161941932,-0.226041391,-0.246523402
842752,0.002571,1.039961,-0.163552,-0.152599,-0.114777,-0.109512,-0.013435144,0.003393201,0.052655087,-0.12360457,-0.153635008,-0.097832957
842761.875,0.003305,1.012091,-0.149625,-0.126397,-0.105,-0.159234,-0.012533399,-0.005086283,0.023007233,-0.170974479,-0.126943501,-0.083724209
842771.75,0.007949,0.998157,-0.137653,-0.083578,-0.087281,-0.2132,-0.013099726,-0.004672748,0.007539326,-0.221785274,-0.084345948,-0.061274369
842781.625,0.013327,0.975911,-0.124215,-0.038203,-0.072616,-0.258071,-0.010220646,-0.007023049,-0.016203542,-0.264486596,-0.039134667,-0.042994324
842791.5,0.023105,0.960265,-0.111755,0.00909,-0.052453,-0.296879,-0.006479385,-0.004973937,-0.033012322,-0.30088612,0.007542703,-0.01953808
842801.375,0.037038,0.943641,-0.098805,0.047435,-0.037177,-0.331442,-0.003797203,0.005425233,-0.050500802,-0.333847722,0.045020748,-0.002199741
842811.25,0.045594,0.942663,-0.080725,0.094088,-0.019458,-0.358122,0.006572139,0.009581864,-0.052860166,-0.359144853,0.090551242,0.017262087
842821.125,0.05366,0.943885,-0.070952,0.143937,-0.00296,-0.382983,0.016349775,0.017710627,-0.052238694,-0.382779048,0.139458492,0.037869898
842882,0.034105,1.027982,-0.107601,0.368896,0.074028,-0.204711,0.002405192,0.002086368,0.034155685,-0.198874392,0.364030383,0.106779462
842892,0.026283,1.051695,-0.121772,0.373369,0.082582,-0.109512,0.005164466,0.002021412,0.05903297,-0.102318073,0.370138565,0.103660649
842902,0.013571,1.081275,-0.140829,0.371452,0.089303,-0.014312,0.001183599,0.001081056,0.090490731,-0.006287835,0.370346588,0.094658941
