time,aX,aY,aZ,gX,gY,gZ,aX_T,aY_T,aZ_T,gX_T,gY_T,gZ_T
1331148,0.111105,-1.003285,-0.026973,-0.027338,-0.00296,-0.030078,0.007994167,0.009971205,0.00969764,-0.027578311,-0.029978092,0.001250882
1331157.875,0.110372,-1.002552,-0.027706,-0.039481,-0.004793,-0.028258,-0.014170968,-0.005320861,0.0088761,-0.039866304,-0.028118552,0.000511452
1331167.75,0.112816,-1.002552,-0.026729,-0.025421,9.50E-05,-0.028865,-0.004904829,0.011086265,0.00916076,-0.025326177,-0.028880765,-0.00197753
1331177.625,0.114038,-1.00084,-0.029905,-0.034368,-0.006015,-0.025227,-0.007905618,-0.009606687,0.007682933,-0.034932441,-0.025061548,0.002320459
1331187.5,0.115016,-1.005241,-0.029416,-0.032451,-0.005404,-0.028865,0.004674937,-0.010476584,0.012161961,-0.03293882,-0.028720387,0.002373263
1331197.375,0.112816,-1.002307,-0.025263,-0.034368,-0.004793,-0.022195,0.005655289,0.010708194,0.008879747,-0.034741119,-0.022049553,0.001903192
1331207.25,0.110861,-1.002307,-0.028683,-0.030534,-0.003571,-0.028865,-0.009472656,-0.008969391,0.00874279,-0.030838657,-0.028758019,0.000467986
1331217.125,0.114283,-1.004263,-0.025507,-0.028616,-0.003571,-0.03129,5.12E-18,2.28E-16,0.011066459,-0.028925918,-0.031189243,0.001101822
1331280,0.114283,-1.001329,-0.028683,-0.037564,-0.003571,-0.025227,0.005742894,0.007681631,0.008191994,-0.037797899,-0.025126795,0.000413105
1331290,0.112083,-1.001329,-0.028928,-0.030534,-0.004182,-0.02462,-0.012513636,0.007726993,0.00789032,-0.03090552,-0.024478462,0.001269808
1331300,0.112572,-1.002552,-0.029172,-0.038203,-0.003571,-0.022195,-0.016088971,-0.001949361,0.009143854,-0.038427844,-0.022081906,-0.000727659
1331310,0.114038,-1.001818,-0.028928,-0.03309,-0.005404,-0.025833,0.013825968,-0.005332831,0.008593676,-0.033538243,-0.025679539,0.002691231
1331320,0.112816,-1.002063,-0.028439,-0.029895,-0.002349,-0.027046,0.015874772,0.000529898,0.008669516,-0.03005606,-0.026968329,0.000239718
1331330,0.111105,-1.001329,-0.028439,-0.031812,-0.002349,-0.025833,-0.004321741,0.011366632,0.007802057,-0.031955956,-0.025760385,-0.000290714
1331340,0.111594,-1.001574,-0.029661,-0.038842,-0.004793,-0.020982,-0.00032308,-0.011137279,0.008146482,-0.039202633,-0.020841581,0.000836756
1331350,0.111594,-1.001574,-0.02795,-0.032451,-0.00296,-0.028258,8.64E-18,2.64E-16,0.008159164,-0.032666356,-0.028164434,0.000132056
1331413,0.11135,-1.002307,-0.027462,-0.029255,-0.004793,-0.029471,-0.012341583,-0.007014315,0.008747139,-0.029720856,-0.029341326,0.001767771
1331423,0.113061,-1.001574,-0.026973,-0.03309,-0.003571,-0.025833,0.00456346,0.011124795,0.008224292,-0.033356443,-0.025718962,0.000962648
1331433,0.112327,-1.001818,-0.028683,-0.030534,-0.001738,-0.027652,-0.015340023,-0.003840026,0.008379548,-0.030607053,-0.027587305,-0.001458716
1331443,0.11355,-1.003285,-0.028439,-0.024782,-0.004793,-0.025833,-0.015791663,0.003471143,0.009961259,-0.025285534,-0.025678165,0.002395384
1331453,0.114772,-1.003285,-0.028683,-0.034368,-0.003571,-0.025833,0.007343098,-0.009792332,0.010161525,-0.03463229,-0.025723863,0.000377787
1331463,0.112083,-1.002063,-0.025263,-0.036285,-0.00296,-0.022801,-0.008420158,0.01010022,0.008542592,-0.036448805,-0.022723919,-0.000597091
1331473,0.114283,-1.001329,-0.02795,-0.030534,-0.000516,-0.023408,0.015851815,0.000307885,0.008092356,-0.030502409,-0.023384637,-0.001813186
1331483,0.112327,-1.001329,-0.02795,-0.030534,-0.001127,-0.027652,4.35E-18,-2.20E-16,0.007997184,-0.03055534,-0.027609788,-0.001516295
1331546,0.112327,-1.002063,-0.030394,-0.03309,-0.004182,-0.027652,0.013981258,0.002747837,0.008696376,-0.033413588,-0.02751751,0.00184095
1331555.875,0.111838,-1.002552,-0.028195,-0.031812,-0.005404,-0.026439,-0.003814837,-0.010732528,0.009100326,-0.032305986,-0.02630205,0.002180079
1331565.75,0.112816,-1.001574,-0.024774,-0.030534,-0.00296,-0.026439,-0.005949356,0.01077536,0.008136982,-0.030746609,-0.026356755,0.000273788
1331575.625,0.114283,-1.001574,-0.027462,-0.028616,-0.007237,-0.029471,0.001468104,0.011473945,0.008380601,-0.029335493,-0.029205767,0.005122643
1331585.5,0.114283,-1.003529,-0.028928,-0.033729,-0.004182,-0.031897,0.014140519,0.005125741,0.010317603,-0.034066732,-0.031755937,0.001889819
1331595.375,0.114038,-1.002307,-0.028928,-0.031173,-0.004793,-0.02462,0.002618763,-0.010812309,0.009126877,-0.031589322,-0.02449243,0.001763171
1331605.25,0.11355,-1.001329,-0.027462,-0.033729,-0.006626,-0.025227,0.005338996,0.010825729,0.008048525,-0.034317711,-0.02499759,0.003919951
1331615.125,0.11135,-1.002552,-0.03186,-0.033729,-0.007237,-0.028258,-4.50E-19,8.93E-17,0.009219696,-0.03442018,-0.028013874,0.004359848
1331678,0.113061,-1.001818,-0.029416,-0.033729,-0.006015,-0.026439,-0.006546262,-0.006980938,0.008561257,-0.034302236,-0.026261134,0.002560431
1331687.875,0.115994,-1.002552,-0.02624,-0.035007,-0.003571,-0.028865,0.015421873,0.002032344,0.009461091,-0.035262822,-0.028761174,0.00087096
1331697.75,0.113794,-1.002552,-0.026484,-0.027338,-0.004182,-0.031897,0.012458091,0.007005563,0.009235705,-0.027702425,-0.031760702,0.002471329
1331707.625,0.113305,-1.005241,-0.026973,-0.027977,-0.004182,-0.026439,-0.015725791,-0.002552247,0.011840511,-0.028371779,-0.026320671,0.00121934
1331717.5,0.115016,-1.001818,-0.026484,-0.038842,-0.002349,-0.027652,0.010524903,0.008625804,0.008654653,-0.038950839,-0.02758903,-0.000727617
1331727.375,0.111594,-1.002307,-0.029172,-0.035007,-0.00296,-0.019769,-0.014223762,-0.005187764,0.008808367,-0.035173643,-0.019671403,-0.000956964
1331737.25,0.115261,-1.002063,-0.027706,-0.03309,-0.003571,-0.030684,0.012145145,-0.006758163,0.008954805,-0.033370531,-0.030577215,0.000805939
1331747.125,0.11135,-1.001574,-0.025507,-0.035646,9.50E-05,-0.030078,6.62E-18,1.10E-16,0.008067412,-0.035501964,-0.03007067,-0.003270746
1331810,0.113061,-1.002063,-0.02795,-0.025421,-0.001738,-0.031897,-0.008216256,0.007048336,0.008750248,-0.025544057,-0.031845208,-0.000224474
1331820,0.114038,-1.002796,-0.02795,-0.03309,-0.004793,-0.026439,0.015534819,-0.00223211,0.00952433,-0.033471894,-0.026299825,0.002212061
1331830,0.111105,-1.00304,-0.027462,-0.040759,-0.004793,-0.020376,-0.014050179,0.006252549,0.009431138,-0.04110797,-0.020234567,0.00038393
1331840,0.113305,-1.001329,-0.028439,-0.030534,-0.005404,-0.028258,0.013848261,0.005733525,0.008008888,-0.030995756,-0.028076533,0.003318791
1331850,0.110861,-1.002063,-0.029416,-0.034368,-0.004793,-0.03129,-0.016251971,0.001756751,0.008473354,-0.034812979,-0.0311339,0.001390378
1331860,0.113305,-1.003529,-0.029661,-0.032451,-0.005404,-0.02462,0.013495278,-0.005742735,0.010234206,-0.032900156,-0.024462671,0.002751815
1331870,0.112083,-1.001085,-0.029172,-0.035646,0.001928,-0.02462,0.000288911,-0.011192911,0.007700063,-0.035290637,-0.024608499,-0.005430617
1331880,0.112083,-1.001818,-0.027706,-0.025421,-0.006626,-0.030078,-6.74E-18,3.53E-16,0.00844907,-0.026092075,-0.029883327,0.0045834
1331943,0.113305,-1.001329,-0.02795,-0.035007,-0.006626,-0.022195,-0.00799473,-0.009215768,0.00803281,-0.035621819,-0.022031288,0.002778546
1331952.875,0.113305,-1.002063,-0.026484,-0.035646,-0.006015,-0.022801,0.009427684,-0.008731188,0.008714314,-0.036138522,-0.022657391,0.002711647
1331962.75,0.112816,-1.002552,-0.025996,-0.027977,-0.003571,-0.028258,-0.008308926,0.01005231,0.009130154,-0.028291883,-0.028144618,0.001195384
1331972.625,0.114283,-1.000596,-0.02795,-0.036925,-0.004793,-0.024014,0.009865104,-0.008455161,0.007405257,-0.037293498,-0.023881541,0.001402742
1331982.5,0.112327,-1.001085,-0.02624,-0.029895,-0.001738,-0.026439,-0.009078288,0.009670847,0.007621521,-0.029971014,-0.026393525,-0.000934089
1331992.375,0.113794,-1.001818,-0.027706,-0.035007,-0.004182,-0.024014,0.002232831,0.011294396,0.008574962,-0.035327722,-0.023877614,0.00120954
1332002.25,0.113061,-1.00084,-0.030394,-0.022865,-0.001738,-0.032503,0.008351961,-0.009159537,0.00758803,-0.02302569,-0.032435939,3.71E-05
1332012.125,0.110616,-1.00084,-0.027706,-0.038203,-0.00296,-0.02462,4.38E-18,1.32E-16,0.007315357,-0.038371695,-0.024528662,-0.000577034
1332075,0.113794,-1.001818,-0.026484,-0.031812,-0.00296,-0.022801,-0.003301804,-0.008852469,0.008563589,-0.032013132,-0.022708683,-0.000354465
1332084.875,0.112083,-1.004507,-0.025996,-0.035007,-0.002349,-0.023408,-0.005183622,0.011045216,0.011001403,-0.035113334,-0.023350353,-0.00087012
1332094.75,0.112816,-1.002552,-0.02795,-0.036285,-0.006626,-0.01795,0.009397955,-0.008726532,0.009185162,-0.036825182,-0.017784647,0.00321246
1332104.625,0.108905,-1.002796,-0.024286,-0.032451,-0.001127,-0.022801,-0.00674204,0.010549093,0.008906927,-0.032431049,-0.022785207,-0.001812326
1332114.5,0.112083,-1.001574,-0.029416,-0.029895,9.50E-05,-0.022801,-0.003568481,-0.010775449,0.008191219,-0.029763104,-0.022762811,-0.003101242
1332124.375,0.112327,-1.001818,-0.028683,-0.030534,-0.00296,-0.030684,0.015148884,-0.002778969,0.00838592,-0.030762117,-0.030588601,0.000790079
1332134.25,0.111105,-1.001818,-0.028439,-0.030534,-0.003571,-0.020982,-0.002984405,-0.010790567,0.008299092,-0.030809003,-0.020878569,0.000460658
1332144.125,0.112083,-1.002063,-0.02453,-0.035646,-0.002349,-0.025833,-1.82E-17,8.51E-17,0.00861022,-0.03575643,-0.025767778,-0.000999178
1332207,0.114527,-1.00304,-0.028683,-0.036925,-0.00296,-0.021588,0.001358021,0.007421458,0.009936368,-0.037082728,-0.021516236,-0.000426424
1332216.875,0.112083,-1.001329,-0.025751,-0.03309,-0.006015,-0.02462,0.005200636,0.010873213,0.007839375,-0.033607243,-0.024423798,0.003362144
1332226.75,0.111594,-1.005485,-0.027706,-0.035007,-0.004793,-0.023408,-0.016198394,0.000976615,0.011907894,-0.035413372,-0.023265716,0.000998453
1332236.625,0.112816,-1.003285,-0.027706,-0.031173,-0.002349,-0.024014,0.002334756,0.011356443,0.009921504,-0.031315006,-0.023943566,-0.000148267
1332246.5,0.112327,-1.002063,-0.029172,-0.028616,-0.002349,-0.028258,0.004983805,-0.010422144,0.008694779,-0.028792606,-0.028175513,-0.000184708
1332256.375,0.111105,-1.003285,-0.026484,-0.027977,0.001317,-0.028865,-0.00568378,0.010924297,0.009690482,-0.027727013,-0.028927237,-0.003473178
1332266.25,0.112327,-1.001574,-0.029172,-0.035646,9.50E-05,-0.028865,-0.016111398,0.001302269,0.008145607,-0.035451975,-0.028859207,-0.003760078
1332276.125,0.115505,-1.003774,-0.029416,-0.032451,-0.000516,-0.02462,-1.40E-17,-1.60E-16,0.010825875,-0.032379791,-0.02459432,-0.002479243
1332339,0.11135,-1.002552,-0.027706,-0.03309,-0.004793,-0.022195,0.004447004,-0.007539727,0.009059133,-0.033480917,-0.02206055,0.001702729
1332348.875,0.114527,-1.000351,-0.028683,-0.030534,-0.003571,-0.027652,0.014944416,-0.003111089,0.007178364,-0.030816779,-0.027541108,0.001234423
1332358.75,0.112327,-1.000351,-0.028195,-0.028616,-0.001127,-0.026439,0.006822966,-0.009807167,0.006961619,-0.028655864,-0.026382981,-0.001395019
1332368.625,0.110861,-1.008419,-0.025018,-0.035646,-0.001738,-0.018557,-0.007366308,0.010434008,0.014722529,-0.035659847,-0.018526577,-0.001778057
1332378.5,0.113794,-1.000596,-0.030149,-0.031173,-0.004182,-0.022801,-0.010316815,-0.008443222,0.007408888,-0.031534023,-0.022673619,0.000801909
1332388.375,0.119661,-1.000596,-0.025018,-0.03309,-0.00296,-0.03129,0.014271082,0.004888443,0.007923335,-0.033298569,-0.031205951,0.000409505
1332398.25,0.105483,-1.003774,-0.029661,-0.030534,-0.003571,-0.026439,-0.011235455,-0.007872752,0.009643732,-0.030830916,-0.02632881,0.000588511
1332408.125,0.110616,-1.000596,-0.025507,-0.031812,-0.00296,-0.023408,-2.04E-17,2.46E-18,0.007014827,-0.032010057,-0.023324967,3.96E-05
1332471,0.115016,-1.000596,-0.026973,-0.024782,9.50E-05,-0.021588,-0.011332327,0.001464558,0.007481023,-0.024643558,-0.021591161,-0.002591351
1332480.875,0.122105,-1.001574,-0.027462,-0.028616,-0.005404,-0.022801,0.013736608,0.005697057,0.009253744,-0.02909621,-0.022629697,0.003044939
1332490.75,0.116972,-1.001574,-0.029416,-0.033729,-0.007237,-0.025227,0.014720146,-0.003452291,0.008696994,-0.034364584,-0.025018116,0.004426108
1332500.625,0.107194,-1.003774,-0.026973,-0.03309,-0.00296,-0.031897,-0.002232322,-0.010934193,0.009780075,-0.033309121,-0.031805851,-0.000136315
1332510.5,0.107438,-1.002552,-0.024774,-0.031812,9.50E-05,-0.026439,-0.00943112,0.009499794,0.008507806,-0.031663664,-0.026460281,-0.002880808
1332520.375,0.111594,-1.002307,-0.028928,-0.031173,-0.00296,-0.027046,-0.016070999,-0.000905191,0.008786536,-0.031395424,-0.026949311,-0.000256203
1332530.25,0.118683,-1.004018,-0.028439,-0.033729,-0.00296,-0.022801,0.015041238,0.003466286,0.011290424,-0.033920882,-0.022707373,0.000203892
1332540.125,0.114283,-1.001085,-0.029172,-0.036285,-0.000516,-0.029471,-6.37E-18,2.33E-16,0.008009319,-0.036206846,-0.029443465,-0.002748458
1332603,0.11575,-1.004018,-0.025507,-0.025421,-0.001738,-0.027652,0.016232944,0.006911864,0.010836056,-0.025547019,-0.027590184,0.000112011
1332612.875,0.110861,-1.00304,-0.029905,-0.028616,-0.00296,-0.032503,0.01025858,-0.008216777,0.009505304,-0.028865836,-0.032407098,0.000790925
1332622.75,0.108661,-1.002063,-0.028195,-0.031812,-0.004182,-0.028258,-0.015865394,0.002456415,0.008203691,-0.032184062,-0.028125189,0.00108025
1332632.625,0.11575,-1.002307,-0.029172,-0.029895,9.50E-05,-0.023408,-0.008238978,-0.009528525,0.009311506,-0.029738185,-0.023373945,-0.003309621
1332642.5,0.116972,-1.001085,-0.027462,-0.027338,-0.009682,-0.027046,0.011286882,0.00798629,0.008174892,-0.028278464,-0.026711883,0.007706963
1332652.375,0.115505,-1.003529,-0.028683,-0.032451,-0.004793,-0.030078,0.015124887,0.003227278,0.010443168,-0.032851197,-0.029921834,0.002491803
1332662.25,0.112327,-1.001329,-0.029172,-0.030534,-0.00296,-0.027046,0.002554909,-0.010757068,0.007971173,-0.03076026,-0.026951196,0.000110917
1332672.125,0.11135,-1.001574,-0.025263,-0.038203,-0.005404,-0.025227,-1.35E-17,2.48E-16,0.008061268,-0.038636219,-0.025082716,0.00178155
1332735,0.112327,-1.002063,-0.027217,-0.034368,-0.007237,-0.020982,-0.007614656,0.007971563,0.008646047,-0.035048,-0.020754805,0.003828015
1332744.875,0.113305,-1.002063,-0.027462,-0.031812,-0.00296,-0.026439,0.006406288,0.010580099,0.00874648,-0.0320224,-0.026344459,0.000566631
1332754.75,0.112572,-1.002552,-0.028683,-0.04012,-0.003571,-0.023408,0.010321771,-0.008206764,0.009173817,-0.040344109,-0.023294897,-3.93E-05
1332764.625,0.11135,-1.002552,-0.027706,-0.031173,-0.002349,-0.02462,-0.01507792,-0.003729575,0.008977554,-0.031305715,-0.024543693,-0.000988684
1332774.5,0.114283,-1.003774,-0.026973,-0.036285,-0.005404,-0.020982,0.015362399,0.002734492,0.010498347,-0.036694423,-0.020823571,0.002438638
1332784.375,0.107927,-1.004018,-0.02795,-0.035007,-0.003571,-0.022801,0.006877837,-0.009901659,0.010116942,-0.035252159,-0.022698098,0.000457517
1332794.25,0.107194,-1.003529,-0.026973,-0.026699,-0.004793,-0.024014,0.007561075,0.0101147,0.009519229,-0.027104043,-0.023848971,0.00301315
1332804.125,0.10255,-1.001818,-0.032593,-0.029255,-0.004182,-0.016131,-6.08E-18,2.44E-16,0.007580325,-0.029581879,-0.015986485,0.001702356
1332867,0.116483,-1.000351,-0.031127,-0.031173,-0.001738,-0.016738,-0.002063321,0.003008018,0.007584238,-0.03122519,-0.016674326,-0.001375351
1332876.875,0.126505,-1.001329,-0.034547,-0.028616,-0.001738,-0.025833,0.00927026,-0.008684566,0.009799692,-0.028728258,-0.025749798,-0.000935445
1332886.75,0.120883,-1.002796,-0.029172,-0.038203,-0.004793,-0.033109,0.014006042,-0.004632733,0.010369186,-0.038598711,-0.032961462,0.001526251
1332896.625,0.112327,-1.002063,-0.02624,-0.034368,-0.002349,-0.036141,0.014839819,0.003703605,0.008564431,-0.034523194,-0.036069248,8.69E-05
1332906.5,0.108661,-1.000596,-0.026973,-0.033729,-0.006626,-0.034322,0.015105173,-0.002650462,0.006723358,-0.034284676,-0.034142532,0.004289234
1332916.375,0.099616,-1.002063,-0.025263,-0.028616,-0.004793,-0.027046,-0.012502348,0.007379566,0.007214503,-0.029047729,-0.026898806,0.002453178
1332926.25,0.103038,-1.001818,-0.027217,-0.031173,-0.005404,-0.015525,-0.015630011,0.002921846,0.007345058,-0.031641877,-0.015366059,0.002158842
1332936.125,0.129194,-1.001574,-0.031615,-0.029895,-0.004182,-0.013099,-2.89E-17,8.14E-17,0.010366802,-0.03023692,-0.012960539,0.000732855
1332999,0.117461,-1.012575,-0.02624,-0.028616,-0.009071,-0.034322,-0.003303982,-0.002973833,0.019693089,-0.029616171,-0.034074782,0.006399209
1333009,0.108172,-0.999862,-0.013046,-0.035646,-0.00846,-0.034928,-0.00491905,-0.010356712,0.005715636,-0.036423757,-0.034861147,0.004492708
1333019,0.126261,-1.004263,0.024824,-0.04012,0.002539,0.006304,-0.00621749,-0.010090773,0.012403953,-0.03946179,0.006452347,-0.007545574
1333029,0.136527,-0.978349,0.045348,-0.04012,0.029424,0.037229,0.01531538,-0.005403599,-0.011263903,-0.036403618,0.038744647,-0.032171626
1333039,0.085438,-0.945102,0.064161,-0.052902,0.044699,0.199129,-0.012354096,0.017999398,-0.049128045,-0.048755446,0.201139268,-0.040185595
1333049,0.106705,-0.970282,0.04828,-0.066323,0.071584,0.435612,0.012444291,0.011012392,-0.022816321,-0.060895135,0.438014396,-0.060958964
1333059,0.088861,-0.919678,0.025557,-0.091247,0.100302,0.646021,0.000183574,0.000371773,-0.075685719,-0.083068,0.648503557,-0.090953188
1333069,0.107927,-0.971993,0.022625,-0.161546,0.14124,0.932832,7.66E-18,8.46E-17,-0.021771744,-0.1473761,0.935866133,-0.136587899
1333130,0.437195,-1.207169,0.02458,-0.252297,0.418031,2.049758,0.307528026,-0.002506422,0.24676416,-0.202544572,2.059104844,-0.39871605
1333140,0.501729,-1.228927,0.024091,-0.220982,0.480355,2.076438,0.375478713,-0.003575149,0.273411517,-0.156231002,2.087026932,-0.459433563
1333150,0.552085,-1.227216,0.015051,-0.175606,0.542067,2.052184,0.430706718,-0.013330837,0.274910782,-0.095516687,2.063215069,-0.519762841
1333160,0.587041,-1.212059,-0.005961,-0.12384,0.590949,1.973962,0.470604305,-0.03614719,0.261334475,-0.029706218,1.984656179,-0.566868974
1333170,0.67993,-1.214259,-0.013291,-0.075909,0.655106,1.895135,0.564973882,-0.048895443,0.270952447,0.034585121,1.905361039,-0.628383558
1333180,0.654508,-1.217437,-0.013291,-0.010083,0.732705,1.772649,0.539669227,-0.052187006,0.271512431,0.117369833,1.781207907,-0.701972561
1333190,0.681641,-1.21157,-0.03186,0.055104,0.805416,1.62227,0.564542277,-0.076438994,0.268463825,0.19847969,1.627937371,-0.77066015
1333200,0.702663,-1.202769,-0.050428,0.112622,0.887903,1.456126,0.585479107,-0.095803648,0.261335569,0.256261666,1.460441689,-0.850175519
1333261,0.649374,-1.158276,-0.096118,0.546562,1.24046,0.898875,0.525048126,-0.148807275,0.214376142,0.714982828,0.884400969,-1.162790514
1333271,0.650108,-1.161943,-0.10247,0.591298,1.263068,0.905545,0.515596257,-0.165363107,0.220683247,0.780029122,0.883239169,-1.173213102
1333281,0.65133,-1.155343,-0.118351,0.633478,1.297285,0.920704,0.50706881,-0.191314148,0.216279283,0.844537349,0.889418991,-1.194834352
1333291,0.641063,-1.141408,-0.128857,0.675657,1.339445,0.937076,0.488382708,-0.210821552,0.203085501,0.910519192,0.89553475,-1.22380923
1333301,0.641063,-1.133341,-0.133255,0.703138,1.384661,0.95648,0.480189127,-0.224951606,0.196660213,0.962770905,0.904584288,-1.257514443
1333311,0.643752,-1.131141,-0.14596,0.722311,1.423155,0.991649,0.473385769,-0.247948729,0.195670633,1.008002166,0.929210751,-1.284900808
1333321,0.643996,-1.129674,-0.151336,0.756821,1.459816,1.034095,0.465706022,-0.263403498,0.194794241,1.068943456,0.957958671,-1.308765953
1333331,0.648397,-1.121851,-0.163552,0.779828,1.495255,1.110497,0.46946685,-0.275908199,0.187094409,1.106112426,1.03141235,-1.337844041
1333392,0.604641,-0.965637,-0.294022,0.977306,1.632123,1.349405,0.425564033,-0.405315765,0.019366899,1.364840861,1.230810339,-1.436022874
1333401.875,0.606841,-0.961237,-0.28767,1.012456,1.641288,1.378511,0.42494149,-0.409547026,0.013253454,1.420331468,1.240531125,-1.436289343
1333411.75,0.615885,-0.964904,-0.284005,1.054636,1.650453,1.41368,0.429701529,-0.418481952,0.015501036,1.483906984,1.254551263,-1.434874395
1333421.625,0.627863,-0.971504,-0.276431,1.094259,1.656563,1.459158,0.438334039,-0.424725193,0.020743771,1.546038479,1.277880814,-1.430919791
1333431.5,0.626396,-0.958548,-0.294511,1.137717,1.66634,1.50706,0.432064729,-0.452887016,0.003063491,1.612397114,1.30149215,-1.431297503
1333441.375,0.623708,-0.938746,-0.327251,1.171589,1.666951,1.542836,0.422211406,-0.494531362,-0.023001945,1.665663433,1.313451006,-1.425517845
1333451.25,0.626885,-0.934101,-0.352661,1.193318,1.671839,1.578005,0.416938914,-0.530864941,-0.033437214,1.707801457,1.327028122,-1.425329371
1333461.125,0.63593,-0.934835,-0.372207,1.236136,1.670006,1.587101,0.42114155,-0.551999095,-0.033150329,1.751053667,1.325745741,-1.418467878
1333522,0.677485,-0.887653,-0.476535,1.45726,1.666951,1.633791,0.438081051,-0.673465131,-0.089764267,1.986641849,1.302042494,-1.389080589
1333531.875,0.668197,-0.854405,-0.491194,1.487297,1.661451,1.607111,0.423678847,-0.695677959,-0.131498364,2.019743107,1.251035126,-1.382326464
1333541.75,0.66453,-0.825803,-0.504877,1.509665,1.65473,1.569516,0.413440405,-0.717771964,-0.167941143,2.041726768,1.19097895,-1.376052762
1333551.625,0.658908,-0.802823,-0.517826,1.528199,1.635178,1.514943,0.39986119,-0.738387641,-0.198923843,2.053344011,1.11491024,-1.358309647
1333561.5,0.651819,-0.785221,-0.521246,1.570379,1.621124,1.453094,0.386373917,-0.749171326,-0.223730111,2.0845587,1.025159826,-1.345093959
1333571.375,0.64473,-0.770309,-0.531264,1.599138,1.602794,1.400946,0.370201088,-0.765775308,-0.246452723,2.103858924,0.947991073,-1.328130716
1333581.25,0.631041,-0.753196,-0.534196,1.623423,1.583852,1.354256,0.349372923,-0.772917245,-0.271014529,2.119993524,0.877737894,-1.308931761
1333591.125,0.685552,-0.751241,-0.547389,1.664324,1.558801,1.321512,0.396748795,-0.80299709,-0.270777558,2.145612813,0.831422094,-1.285033797
1333652,0.606596,-0.651988,-0.632904,1.903982,1.454317,1.075328,0.294742367,-0.857925496,-0.391144259,2.289086265,0.495772468,-1.187774992
1333661.875,0.591441,-0.621429,-0.643166,1.944244,1.445151,1.021968,0.269792177,-0.867668893,-0.430788409,2.314142938,0.414556557,-1.177221331
1333671.75,0.569441,-0.596494,-0.655138,1.986424,1.436597,0.966788,0.237242963,-0.87610552,-0.465744595,2.33887701,0.330966679,-1.168112013
1333681.625,0.561863,-0.576692,-0.672485,2.027326,1.424377,0.93647,0.215584958,-0.894300036,-0.495767573,2.369304046,0.270080059,-1.152966481
1333691.5,0.549885,-0.557379,-0.689343,2.056085,1.417045,0.911003,0.189837012,-0.909622842,-0.525883106,2.389589676,0.218440122,-1.143491852
1333701.375,0.533263,-0.539533,-0.706446,2.0874,1.409101,0.889173,0.159477202,-0.922608641,-0.555149964,2.412438662,0.168777457,-1.133616727
1333711.25,0.523729,-0.530488,-0.720862,2.103377,1.402991,0.878259,0.135605473,-0.936226907,-0.575215417,2.424728452,0.135184943,-1.125315238
1333721.125,0.520551,-0.512886,-0.739186,2.118076,1.394437,0.875227,0.127547375,-0.949104386,-0.595829409,2.435987158,0.125327917,-1.116683603
1333782,0.426684,-0.313402,-0.761664,2.288712,1.4201,0.766081,0.045208284,-0.906682419,-0.809486742,2.552915419,-0.056871287,-1.149415176
1333791.875,0.412262,-0.288222,-0.770216,2.304689,1.431709,0.756986,0.020903311,-0.906606121,-0.84542653,2.565625781,-0.088267283,-1.159389103
1333801.75,0.39564,-0.253264,-0.766306,2.326418,1.448817,0.749103,0.001035655,-0.891918314,-0.888738161,2.584192985,-0.120492553,-1.174680756
1333811.625,0.390506,-0.23224,-0.776324,2.352621,1.468981,0.744252,-0.016074866,-0.895867424,-0.920801114,2.607859962,-0.15198653,-1.192731445
1333821.5,0.378773,-0.21366,-0.774858,2.375628,1.494033,0.740614,-0.034485128,-0.886382806,-0.948417068,2.628899413,-0.18068905,-1.216754469
1333831.375,0.346506,-0.175035,-0.778278,2.396718,1.519695,0.733337,-0.070452256,-0.866861288,-0.997120648,2.645748456,-0.211933668,-1.243628742
1333841.25,0.311306,-0.137876,-0.771682,2.4095,1.539248,0.724242,-0.10411873,-0.835963958,-1.041687853,2.652899507,-0.242136879,-1.266094415
1333851.125,0.292484,-0.107073,-0.76875,2.413973,1.549635,0.715146,-0.115089208,-0.818322128,-1.071354392,2.653993256,-0.250016913,-1.278232928
1333911,0.174905,0.094367,-0.76875,2.406943,1.57652,0.699381,-0.200829686,-0.716414576,-1.277292344,2.637680911,-0.274359256,-1.317304106
1333921,0.154372,0.12248,-0.776568,2.362846,1.563689,0.729093,-0.228681256,-0.70073149,-1.313958892,2.604288328,-0.248925808,-1.309755457
1333931,0.123083,0.15695,-0.769971,2.321306,1.555134,0.766687,-0.257824287,-0.664704566,-1.352608203,2.577671153,-0.216386521,-1.305182195
1333941,0.091305,0.20022,-0.751158,2.295103,1.545358,0.780028,-0.279547732,-0.614954575,-1.395407295,2.552208307,-0.211591487,-1.305961182
1333951,0.089105,0.224178,-0.737231,2.254201,1.536193,0.808527,-0.280882665,-0.588282883,-1.420396482,2.521808315,-0.185629928,-1.304243591
1333961,0.065883,0.25987,-0.724282,2.207548,1.527028,0.830356,-0.298664229,-0.54740673,-1.45563467,2.483415905,-0.161264786,-1.304305519
1333971,0.059772,0.279916,-0.727214,2.169842,1.518473,0.851579,-0.312742007,-0.531469807,-1.48010222,2.451923495,-0.141029191,-1.30665347
1333981,0.041438,0.300451,-0.747982,2.130858,1.509308,0.890386,-0.336709106,-0.532148297,-1.504886276,2.439683363,-0.091158849,-1.284908104
1334041,-0.061473,0.429774,-0.68519,1.904621,1.407879,1.169921,-0.382250467,-0.37746307,-1.60776325,2.382670659,0.220201347,-1.119290613
1334051,-0.075896,0.455443,-0.68861,1.871389,1.392604,1.208122,-0.404170013,-0.349753114,-1.633791465,2.364883138,0.257829596,-1.114384628
1334061,-0.119163,0.485268,-0.682014,1.847103,1.373662,1.229951,-0.443785145,-0.294535364,-1.656606132,2.344856342,0.277592078,-1.111803768
1334071,-0.159007,0.505314,-0.668576,1.819623,1.364497,1.257844,-0.477314816,-0.237532047,-1.665859163,2.327106244,0.307448825,-1.115841925
1334081,-0.181252,0.525116,-0.659047,1.781277,1.344333,1.272397,-0.498853589,-0.193111604,-1.675866151,2.291961884,0.330446969,-1.112154941
1334091,-0.177829,0.518026,-0.65416,1.735902,1.31806,1.295439,-0.504832649,-0.176490529,-1.664751446,2.256740881,0.361594507,-1.097802408
1334101,-0.158763,0.50947,-0.649518,1.70906,1.289953,1.313023,-0.498908464,-0.170141873,-1.654813783,2.233059469,0.377283731,-1.086276492
1334111,-0.170985,0.514603,-0.648052,1.679662,1.2704,1.342129,-0.507119907,-0.159811385,-1.65674442,2.227351712,0.408162387,-1.052995092
1334171,-0.280497,0.542473,-0.542259,1.500079,1.098093,1.274216,-0.532220951,0.007864162,-1.619418566,2.025413685,0.404560603,-0.9020542
1334181,-0.269008,0.545162,-0.542992,1.471959,1.040047,1.240259,-0.532155591,0.017978498,-1.617166446,1.970226859,0.375859736,-0.873807204
1334191,-0.275363,0.557629,-0.547878,1.451509,0.99422,1.195995,-0.547971651,0.040454313,-1.620512453,1.914801809,0.34076681,-0.862071829
1334201,-0.303475,0.563252,-0.546901,1.431058,0.951449,1.175985,-0.576192701,0.077631282,-1.608626282,1.875641984,0.323450771,-0.844671337
1334211,-0.32523,0.572297,-0.538349,1.409968,0.919065,1.165676,-0.593920126,0.117355165,-1.597163884,1.8431422,0.31758527,-0.832740775
1334221,-0.333052,0.577431,-0.533463,1.378653,0.874461,1.155975,-0.603487933,0.14420268,-1.58646472,1.803962151,0.312537027,-0.806030706
1334231,-0.339408,0.585743,-0.529798,1.346698,0.827413,1.144454,-0.612425205,0.170717841,-1.578592568,1.763942806,0.305205432,-0.77674845
1334241,-0.347964,0.603345,-0.525156,1.308353,0.779142,1.134145,-0.615273213,0.187573386,-1.589192717,1.729268412,0.297947183,-0.725253711
1334302,-0.406142,0.624369,-0.471648,1.106402,0.560398,1.007415,-0.625109878,0.280608425,-1.554739903,1.490677483,0.235105881,-0.525035382
1334312,-0.415186,0.628769,-0.45821,1.091703,0.55551,0.984373,-0.627346161,0.31045326,-1.536415736,1.458485042,0.230244858,-0.537778479
1334322,-0.410297,0.624613,-0.443306,1.075726,0.553066,0.975277,-0.61808862,0.327810862,-1.515278308,1.435290387,0.235989939,-0.546336807
1334332,-0.408342,0.619479,-0.430113,1.063583,0.5494,0.94981,-0.61143389,0.344806341,-1.492698486,1.402941345,0.229332878,-0.560669428
1334342,-0.408342,0.617279,-0.411788,1.046967,0.550622,0.912215,-0.601714716,0.366926137,-1.469734521,1.358371058,0.221632219,-0.580661624
1334352,-0.425942,0.630236,-0.407146,1.038019,0.540234,0.860068,-0.613792347,0.400020025,-1.45566962,1.30831463,0.195174634,-0.599393757
1334362,-0.443297,0.651015,-0.402748,1.013095,0.531069,0.801857,-0.625642026,0.437454395,-1.446927757,1.242694315,0.176278753,-0.613194138
1334372,-0.45112,0.662261,-0.402748,1.002231,0.509072,0.757592,-0.631315082,0.448863431,-1.451959872,1.20327992,0.145114529,-0.607145884
1334433,-0.457964,0.66495,-0.359258,0.937044,0.45958,0.433792,-0.603651095,0.48904385,-1.421185596,0.912853372,-0.018243461,-0.666188134
1334442.875,-0.447453,0.667884,-0.353883,0.937044,0.474244,0.360422,-0.592778858,0.498825265,-1.413887646,0.849983561,-0.042886694,-0.713127986
1334452.75,-0.44012,0.677173,-0.348263,0.956855,0.48341,0.287052,-0.583618504,0.514566831,-1.410080995,0.798986128,-0.080778938,-0.765997062
1334462.625,-0.438653,0.684018,-0.352417,0.962607,0.491353,0.207618,-0.58508227,0.527374593,-1.405030365,0.733267482,-0.112881043,-0.812848025
1334472.5,-0.45992,0.702109,-0.357059,0.982419,0.51396,0.141524,-0.600993831,0.560674836,-1.395505659,0.684726607,-0.134369689,-0.873169672
1334482.375,-0.491453,0.719955,-0.356814,1.010539,0.528014,0.101504,-0.618503195,0.602249463,-1.376731822,0.660994931,-0.151578524,-0.922171659
1334492.25,-0.522253,0.732911,-0.356081,1.021403,0.542067,0.094227,-0.63386904,0.640519981,-1.353050426,0.652221695,-0.142477321,-0.948834296
1334502.125,-0.534476,0.736089,-0.344598,1.042493,0.563453,0.099078,7.89E-17,-9.40E-17,-0.02725163,1.128334902,-0.32862815,-0.181524862
1334562,-0.556965,0.778627,-0.297443,1.196513,0.664882,0.208831,-0.011077517,-0.062382467,0.000463928,1.281321347,-0.47373073,-0.226089848
1334572,-0.568454,0.786205,-0.288159,1.197791,0.660605,0.227022,-0.002101327,-0.00152279,0.012070712,1.294859146,-0.443400892,-0.222208631
1334582,-0.567231,0.783516,-0.265925,1.188205,0.636164,0.267042,-0.007019246,-0.000956009,0.003152158,1.272595263,-0.460467399,-0.23731468
1334592,-0.55452,0.77716,-0.244424,1.187566,0.62761,0.308881,-0.013514884,-0.001824652,-0.014592873,1.268417135,-0.486051272,-0.233424336
1334602,-0.553542,0.788894,-0.239782,1.179897,0.602558,0.365273,-0.020985375,-0.013400865,-0.007207007,1.245606066,-0.524976642,-0.248037282
1334612,-0.568209,0.821164,-0.250288,1.166476,0.56773,0.424697,-0.000511116,-0.023408747,0.029207285,1.202442336,-0.568730509,-0.306641794
1334622,-0.589231,0.839987,-0.266169,1.141552,0.543289,0.493823,-0.012009052,-0.013937425,0.059848479,1.157218514,-0.631270883,-0.323276113
1334632,-0.589231,0.849277,-0.263237,1.110875,0.513349,0.545364,-0.007656805,-0.019628289,0.066449444,1.107402484,-0.671065296,-0.343981773
1334693,-0.587765,0.854655,-0.209241,0.868022,0.268331,0.892205,-0.019693825,-0.068035349,0.055778388,0.717454379,-0.931219142,-0.489472782
1334702.875,-0.590454,0.845366,-0.210951,0.826482,0.23717,0.933438,-0.03049038,-0.05950091,0.050385597,0.656292463,-0.965947545,-0.496844189
1334712.75,-0.588009,0.825808,-0.215593,0.804114,0.205397,0.96982,-0.037762015,-0.046631147,0.034694808,0.609928306,-0.994650694,-0.51768286
1334722.625,-0.591676,0.795006,-0.210218,0.756821,0.192565,0.981341,0.00523752,-0.002719107,0.013050745,0.56918167,-0.999376152,-0.500168967
1334732.5,-0.584098,0.769826,-0.201911,0.710807,0.168736,0.96982,-0.018069147,0.005192612,-0.012975614,0.528179638,-0.985887113,-0.472569711
1334742.375,-0.562342,0.750024,-0.191405,0.671184,0.143073,0.932225,-0.008695425,0.000450657,-0.043274028,0.480995117,-0.945155992,-0.464031405
1334752.25,-0.550853,0.738534,-0.184075,0.649455,0.133297,0.871589,-0.005740616,-1.00E-04,-0.060467064,0.462960947,-0.887543704,-0.44402771
1334762.125,-0.55452,0.737312,-0.176501,0.629643,0.119243,0.791549,-0.010622317,-0.007054747,-0.060792134,0.451833337,-0.806238923,-0.427836948
1334823,-0.603409,0.754424,-0.157688,0.512051,0.011704,0.199735,-0.035325677,-0.024571616,-0.022108477,0.387478116,-0.207259528,-0.330350538
1334832.875,-0.602676,0.757358,-0.154023,0.489044,-0.021291,0.118482,0.006965068,0.006045626,-0.019975753,0.355546045,-0.115089449,-0.337634053
1334842.75,-0.610743,0.755402,-0.141562,0.466676,-0.040843,0.031772,0.014235682,0.000898588,-0.018432106,0.331900119,-0.025073784,-0.331176261
1334852.625,-0.636165,0.750269,-0.133744,0.441112,-0.06284,-0.018557,0.013843191,0.002355345,-0.007377335,0.296568237,0.027569012,-0.331903984
1334862.5,-0.657676,0.743912,-0.124215,0.41491,-0.07506,-0.042205,0.015184238,0.000868079,0.000570256,0.263850552,0.052901891,-0.327337516
1334872.375,-0.680898,0.743668,-0.120062,0.381677,-0.076894,-0.038567,0.015757484,-0.005897998,0.015281232,0.231712212,0.051444364,-0.311031126
1334882.25,-0.697032,0.745624,-0.122994,0.346528,-0.085448,-0.020982,0.013679668,-0.008765754,0.027945675,0.196033054,0.036595185,-0.296740786
1334892.125,-0.699476,0.745135,-0.123971,0.309461,-0.084837,0.000847,-1.51E-16,-1.71E-16,0.029495824,0.170108302,0.013087761,-0.271764642
1334954,-0.626387,0.688419,-0.114198,0.090254,-0.115999,0.071186,-0.000774658,-0.000356821,-0.062278373,-0.017016077,-0.051156319,-0.154150846
1334964,-0.62052,0.686707,-0.114686,0.064051,-0.114166,0.065728,-0.011210455,-0.003084925,-0.067460852,-0.032787708,-0.045502985,-0.13531822
1334974,-0.612454,0.682796,-0.115419,0.049991,-0.112944,0.059665,0.002738408,-0.009384733,-0.075588699,-0.043367656,-0.038659731,-0.124257922
1334984,-0.620765,0.684263,-0.126414,0.048713,-0.099501,0.036016,0.007344391,0.009648511,-0.067584586,-0.033882469,-0.018718196,-0.109873405
1334994,-0.626876,0.689397,-0.123482,0.037849,-0.086059,0.0154,0.000189451,0.016228378,-0.060198877,-0.030123253,-0.001629022,-0.090364784
1335004,-0.611965,0.669106,-0.110533,0.042322,-0.06895,-0.016131,0.011571936,0.006487723,-0.086629569,-0.013182735,0.026690195,-0.076937067
1335014,-0.613431,0.650282,-0.10076,0.046157,-0.046343,-0.056758,0.004623138,0.008298072,-0.10042976,0.009031883,0.062518004,-0.059241346
1335024,-0.604143,0.63977,-0.093919,0.03721,-0.02679,-0.09314,0.00347275,0.003026413,-0.115074028,0.02004092,0.095552016,-0.035291947
1335085,-0.628343,0.666172,-0.092941,0.035931,-0.00296,-0.36843,0.002683271,0.007934077,-0.079582736,0.067806612,0.363855637,0.007197376
1335095,-0.630787,0.671551,-0.084879,0.039127,9.50E-05,-0.386014,0.001355116,0.008523922,-0.074795733,0.074240601,0.380787532,0.005189199
1335105,-0.635432,0.679618,-0.078282,0.045518,0.000706,-0.392078,-0.008307799,0.003440214,-0.06635035,0.08003862,0.386508066,0.001696719
1335115,-0.636409,0.686707,-0.076816,0.049991,-0.006015,-0.391472,-0.000785474,0.011048442,-0.06065931,0.078829915,0.386595684,-0.010734458
1335125,-0.637632,0.695508,-0.072907,0.053826,-0.015181,-0.394504,0.005422814,-0.005048311,-0.053656255,0.07596257,0.390837813,-0.015381772
1335135,-0.645698,0.700153,-0.069975,0.051269,-0.02679,-0.395716,-0.003836113,-6.80E-05,-0.045001617,0.06676527,0.393515015,-0.025013968
1335145,-0.647898,0.709932,-0.072907,0.05766,-0.042065,-0.396323,-0.007457837,-0.004246678,-0.0361447,0.06197137,0.396126808,-0.037538801
1335155,-0.646432,0.714332,-0.074373,0.047435,-0.063451,-0.389653,-0.003302813,-0.003456209,-0.033742774,0.039521596,0.392841233,-0.047110277
1335217,-0.62272,0.748068,-0.014757,0.022511,-0.180155,-0.207743,0.026612137,-0.056477884,-0.028554817,-0.076422368,0.228370766,-0.134633347
1335227,-0.632987,0.761758,-0.012802,0.021871,-0.18871,-0.156808,-0.010419493,-0.006457496,-0.009565036,-0.100155893,0.161148932,-0.157093515
1335237,-0.641787,0.778138,-0.01549,0.023789,-0.197264,-0.118001,0.013268803,0.008241323,0.008655174,-0.107595033,0.120731903,-0.165076815
1335247,-0.650832,0.784738,-0.014024,0.023789,-0.200319,-0.067066,0.01488536,0.005901696,0.01947844,-0.111101356,0.069845867,-0.167240874
1335257,-0.661098,0.794028,-0.013535,0.029541,-0.193598,-0.008248,-0.002470024,0.001633036,0.03329834,-0.100603998,0.011675746,-0.167819541
1335267,-0.659143,0.79745,-0.013535,0.033375,-0.192376,0.052995,-0.014781668,0.007575974,0.034554639,-0.095222274,-0.050419943,-0.171235026
1335277,-0.646676,0.794761,-0.008893,0.042322,-0.183822,0.101504,-0.015973683,0.006252957,0.024509504,-0.081412988,-0.100331669,-0.170851464
1335287,-0.635187,0.792806,-0.005961,0.057021,-0.181378,0.146981,-1.04E-16,-1.05E-16,0.015893406,-0.069593686,-0.145613128,-0.178062696
1335349,-0.622232,0.765914,0.027512,0.13499,-0.123331,0.119695,-0.00552624,-0.022810888,-0.013084121,0.027199689,-0.120728946,-0.180123367
1335359,-0.626387,0.772515,0.021159,0.159914,-0.108055,0.105748,-0.007353532,-0.011179133,-0.005309719,0.059193401,-0.106718356,-0.183134769
1335369,-0.62272,0.779116,0.010165,0.179726,-0.092169,0.100898,-7.04E-05,-0.012360236,-0.002627208,0.083506427,-0.099968314,-0.184417946
1335379,-0.628832,0.785472,-0.001074,0.20465,-0.07506,0.094834,0.00244543,-0.01246574,0.006099262,0.112141175,-0.092614981,-0.188031742
1335389,-0.641298,0.797939,-0.007183,0.223184,-0.054897,0.105748,0.014925238,-0.003516138,0.023614303,0.136090993,-0.104880354,-0.185706141
1335399,-0.649854,0.797939,-0.007916,0.250665,-0.042065,0.123333,0.008752989,0.006258757,0.029059641,0.165157824,-0.124403487,-0.192510003
1335409,-0.654498,0.790361,-0.002052,0.26089,-0.034733,0.296147,0.002630518,0.009008201,0.026135608,0.177227319,-0.298091723,-0.191585024
1335419,-0.654743,0.781805,0.012119,0.285175,-0.013348,0.180331,-6.38E-17,-2.26E-16,0.019830537,0.211868134,-0.180516225,-0.191175327
1335480,-0.673809,0.732911,0.001124,0.301791,0.022702,0.544151,-0.037865755,0.00355714,-0.005147299,0.249061455,-0.542966019,-0.175641092
1335490,-0.694587,0.731445,-0.006694,0.297957,0.028202,0.662393,0.007286893,-0.006359034,0.008669501,0.228736344,-0.661825594,-0.194948151
1335500,-0.705343,0.721911,-0.010359,0.295401,0.040422,0.780634,0.004180137,-0.008834317,0.009294818,0.229578314,-0.779876564,-0.193317027
1335510,-0.712432,0.712132,-0.015978,0.288371,0.05142,0.909184,0.002615366,-0.009419472,0.007398169,0.223764966,-0.908753552,-0.191085367
1335520,-0.707299,0.694775,-0.020376,0.286453,0.063641,1.002564,0.000539725,-0.010047967,-0.008386111,0.223381345,-1.002500802,-0.190612143
1335530,-0.707787,0.680596,-0.026973,0.279423,0.073417,1.108072,0.001458364,-0.008530116,-0.01774443,0.212733027,-1.108878902,-0.190848278
1335540,-0.70901,0.666172,-0.03186,0.280063,0.078916,1.177197,-0.00180161,-0.010505016,-0.026664615,0.206513328,-1.177906486,-0.200859033
1335550,-0.706321,0.651749,-0.038212,0.278145,0.082582,1.232377,-0.010197228,-0.003330535,-0.038224977,0.2058404,-1.233216904,-0.199357203
1335611,-0.725876,0.584765,-0.005961,0.302431,0.028813,1.175378,-0.07085622,-0.029393371,-0.071023665,0.181843741,-1.174197878,-0.248998671
1335620.875,-0.737854,0.586232,-0.013779,0.305626,0.022091,1.149305,-0.073836824,-0.020454256,-0.06062995,0.176067846,-1.148532538,-0.254303697
1335630.75,-0.759365,0.599189,-0.021842,0.296679,-0.007849,1.110497,-0.073636258,-0.013880293,-0.03536288,0.145238694,-1.108213357,-0.268425966
1335640.625,-0.792121,0.602611,-0.032837,0.297957,-0.030456,1.058349,0.005150638,-0.004724956,-0.004196249,0.106031244,-1.054046356,-0.295892212
1335650.5,-0.817543,0.596011,-0.037723,0.286453,-0.050009,1.000138,0.004580496,-0.006170474,0.012407842,0.07326003,-0.993377993,-0.304409875
1335660.375,-0.82781,0.592099,-0.041144,0.276867,-0.084837,0.958299,0.006422994,-0.00381172,0.018571385,0.033664357,-0.949047822,-0.316803676
1335670.25,-0.83661,0.590143,-0.04261,0.257694,-0.11111,0.901907,0.007813673,-0.001148228,0.024664966,0.000168963,-0.891225567,-0.312897469
1335680.125,-0.836855,0.584521,-0.04261,0.2398,-0.139828,0.833388,1.33E-16,-2.31E-17,0.021668587,-0.02630193,-0.82101636,-0.311178104
1335741,-0.857144,0.556163,-0.025751,0.034653,-0.252256,0.242787,-0.021473076,-0.00977079,0.021821742,-0.203516046,-0.224393365,-0.178908592
1335751,-0.869122,0.552496,-0.032593,-0.012639,-0.254089,0.147588,-0.014798037,0.000699414,0.030275552,-0.227988831,-0.129286192,-0.133451697
1335761,-0.869122,0.556163,-0.034059,-0.050984,-0.251034,0.050569,0.005280355,0.004444532,0.032377214,-0.241951869,-0.032527216,-0.092606341
1335771,-0.869122,0.557874,-0.032348,-0.099555,-0.245534,-0.024014,-0.003108788,-0.002865305,0.033259391,-0.25809987,0.04223919,-0.048735234
1335781,-0.864477,0.558363,-0.037235,-0.15196,-0.240035,-0.110118,0.003369854,-0.008615727,0.02975268,-0.277533157,0.125692835,0.003357784
1335791,-0.865699,0.558118,-0.043343,-0.199892,-0.235147,-0.215626,0.006049866,0.012323493,0.030834908,-0.293539377,0.230693342,0.048587155
1335801,-0.872055,0.559341,-0.038456,-0.234402,-0.227204,-0.320527,-0.004062376,0.002668481,0.036724417,-0.300724695,0.334272809,0.084438498
1335811,-0.868144,0.559585,-0.034792,-0.277221,-0.216206,-0.402386,-0.00192514,-0.001002878,0.033448184,-0.310456509,0.415259347,0.129179877
1335874,-0.896499,0.641481,-0.079015,-0.39673,-0.149605,-1.172471,0.054057782,0.03304249,0.103375571,-0.28209597,1.177346828,0.297894117
1335884,-0.911411,0.663728,-0.081702,-0.402482,-0.149605,-1.253118,0.06598342,0.02924289,0.128127266,-0.284598201,1.255523071,0.311999712
1335894,-0.939766,0.688174,-0.093186,-0.403121,-0.159381,-1.311935,0.071063439,0.035997637,0.165796456,-0.294328217,1.313162953,0.313139343
1335904,-0.966411,0.721666,-0.090009,-0.385227,-0.166102,-1.354988,0.082570947,0.030517834,0.206277065,-0.292667803,1.355972041,0.296087108
1335914,-0.994767,0.76567,-0.082924,-0.37564,-0.174656,-1.386518,0.101607068,0.021050051,0.253762825,-0.297319375,1.387462689,0.283885132
1335924,-1.013833,0.809674,-0.0861,-0.344964,-0.1826,-1.397433,0.126052667,0.021620981,0.294019245,-0.290382338,1.398702011,0.253914735
1335934,-1.029722,0.837298,-0.092941,-0.320679,-0.196042,-1.390157,0.138456369,0.026020752,0.322946001,-0.291695282,1.391936861,0.226339589
1335944,-1.051233,0.871768,-0.103203,-0.28489,-0.196653,-1.365902,0.155824071,0.03394382,0.360252845,-0.273423883,1.368488311,0.194941303
1336007,-1.057589,1.006469,-0.033326,-0.161546,-0.18871,-0.859586,0.251141107,-0.038325469,0.438069632,-0.217737457,0.865216175,0.067735046
1336016.875,-1.042433,1.026026,-0.051406,-0.146208,-0.170379,-0.767419,0.262840748,-0.01845686,0.439657103,-0.197973549,0.772523695,0.057890576
1336026.75,-1.038033,1.03336,-0.072907,-0.121284,-0.15266,-0.635837,0.256557984,0.002272186,0.44389531,-0.174291446,0.640566747,0.04000387
1336036.625,-1.038522,1.038249,-0.099783,-0.096999,-0.11111,-0.496979,0.244127511,0.025342909,0.451277049,-0.131406703,0.500070989,0.037465308
1336046.5,-1.0461,1.036783,-0.127147,-0.077826,-0.063451,-0.35509,0.221291097,0.04673116,0.460909651,-0.086523753,0.356102563,0.043317764
1336056.375,-1.035344,1.022848,-0.143517,-0.04012,-0.02068,-0.23988,0.197793203,0.056370233,0.44791319,-0.033727857,0.239465699,0.033140637
1336066.25,-1.0175,0.999379,-0.152557,-0.012,0.037978,-0.112543,0.170291474,0.05829453,0.423004159,0.025749391,0.109587346,0.039747174
1336076.125,-0.982789,0.966865,-0.154512,0.018037,0.097858,-0.019163,0.165926577,0.063352901,0.375874589,0.08887638,0.013803456,0.046681857
1336138,-0.81461,0.848788,-0.128369,0.185478,0.229837,0.144556,0.155354823,0.041852726,0.172442898,0.29135637,-0.151996987,-0.011487113
1336147.875,-0.80581,0.84341,-0.122016,0.216793,0.232892,0.168204,0.136608111,0.02861768,0.164507338,0.313190179,-0.174514807,-0.031416045
1336157.75,-0.798477,0.838521,-0.11884,0.233409,0.235336,0.184576,0.117098614,0.019886371,0.157885305,0.325867519,-0.190283087,-0.039163764
1336167.625,-0.793099,0.843654,-0.110777,0.260251,0.234114,0.19731,0.103514068,0.006386765,0.158565357,0.343032051,-0.201631533,-0.056079594
1336177.5,-0.794566,0.844143,-0.107601,0.277506,0.231059,0.220352,0.081742101,-0.000248751,0.161382226,0.352759843,-0.223599612,-0.067205301
1336187.375,-0.787966,0.843654,-0.099783,0.287092,0.221894,0.241574,0.065923896,-0.006863413,0.156808571,0.353132759,-0.243961333,-0.076137271
1336197.25,-0.785766,0.838032,-0.082191,0.313295,0.209674,0.258553,0.045928648,-0.019506369,0.150648192,0.363251862,-0.259407213,-0.098603142
1336207.125,-0.779899,0.822875,-0.069242,0.32352,0.20723,0.305243,0.038970102,-0.030952822,0.134761395,0.367616231,-0.305245606,-0.111652044
1336267,-0.783321,0.714821,-0.022331,0.527389,0.306215,0.648446,-0.042195965,-0.065020857,0.057852217,0.571920296,-0.647594418,-0.214284023
1336277,-0.770121,0.695997,-0.012069,0.565095,0.323323,0.664818,-0.044930856,-0.07035937,0.03473408,0.608150469,-0.665758208,-0.229721808
1336287,-0.770121,0.669595,-0.012802,0.600884,0.343487,0.677552,0.00678168,-0.013104328,0.020485176,0.640358972,-0.682466353,-0.24960304
1336297,-0.778677,0.643437,-0.023797,0.625808,0.353874,0.682403,0.008208209,-0.010491354,0.010315741,0.64761088,-0.693994035,-0.285497361
1336307,-0.789432,0.623146,-0.028439,0.650094,0.358762,0.698774,0.007078512,-0.002114481,0.006115312,0.65472755,-0.715899999,-0.313745934
1336317,-0.796032,0.605545,-0.021598,0.679492,0.367316,0.710902,0.006164484,-0.001137512,0.00038936,0.678829985,-0.725590843,-0.338703197
1336327,-0.779654,0.577187,-0.015001,0.705694,0.366705,0.719391,-0.000329811,-0.016725447,-0.029974035,0.696899896,-0.725021594,-0.372389867
1336337,-0.762054,0.559341,-0.020132,0.726145,0.355707,0.713327,-0.004055267,-0.010693571,-0.054556637,0.700394232,-0.718293573,-0.39516035
1336398,-0.764743,0.52756,0.068314,0.865466,0.138185,0.542332,-0.035677839,-0.093068729,-0.073779985,0.610344267,-0.544522202,-0.627077297
1336408,-0.740054,0.510692,0.077843,0.882082,0.083804,0.512014,-0.036723441,-0.096592543,-0.103413672,0.574805655,-0.519770177,-0.668346859
1336418,-0.703876,0.492602,0.070758,0.889112,0.008649,0.454409,-0.030914201,-0.083218588,-0.142548061,0.518279269,-0.467495854,-0.714084532
1336428,-0.660365,0.474511,0.053899,0.889751,-0.079949,0.369518,-0.02045232,-0.059887625,-0.187508216,0.449901349,-0.388068878,-0.762616259
1336438,-0.62932,0.466688,0.044615,0.873774,-0.194209,0.278563,-0.007382718,-0.044492702,-0.216547548,0.350876363,-0.301097201,-0.81548865
1336448,-0.61172,0.452265,0.025069,0.863549,-0.292583,0.177906,-0.001492222,-0.018959833,-0.23907179,0.264120136,-0.204480699,-0.866833565
1336458,-0.599498,0.443219,0.006255,0.826482,-0.431284,0.099685,0.011489531,-0.002015259,-0.254517614,0.121020553,-0.116435161,-0.922394906
1336468,-0.606831,0.439797,0.005522,0.791971,-0.57304,0.012368,0.004525766,-0.000678519,-0.250550326,-0.006754205,-0.018681377,-0.977420718
1336528,-0.662321,0.470355,0.078332,0.648816,-1.217663,-0.097384,-0.007578033,-0.057807203,-0.185973136,-0.604876285,0.124732263,-1.237624971
1336538,-0.644232,0.458621,0.065627,0.649455,-1.264712,-0.083438,-0.00387524,-0.031372151,-0.207109235,-0.64596994,0.099232463,-1.265356035
1336548,-0.621009,0.440286,0.072224,0.640507,-1.32398,-0.070098,-0.004688256,-0.024729219,-0.235744328,-0.702783005,0.075797101,-1.29167985
1336558,-0.60292,0.428063,0.081019,0.63156,-1.375917,-0.07131,-0.005234703,-0.020551238,-0.256451225,-0.749871903,0.066204799,-1.315450415
1336568,-0.584098,0.42684,0.107651,0.621974,-1.416244,-0.074949,-0.000348578,-0.03526881,-0.269447068,-0.785476185,0.058454476,-1.333351534
1336578,-0.542787,0.409728,0.11156,0.618778,-1.451072,-0.099203,0.003313437,-0.032250562,-0.311603808,-0.801537729,0.071015996,-1.360452643
1336588,-0.501475,0.404838,0.097878,0.62453,-1.476735,-0.134979,0.01917889,-0.026640661,-0.348944296,-0.799770974,0.117889537,-1.391212334
1336598,-0.468964,0.397993,0.024336,0.629004,-1.509119,-0.19986,0.045305128,0.039338685,-0.387368124,-0.811680416,0.182824829,-1.421541484
1336659,-0.340875,0.355945,-0.034059,0.537614,-1.576331,-0.525479,0.094711948,0.072515799,-0.520600657,-0.848257286,0.537063779,-1.428985125
1336669,-0.387075,0.362301,-0.029416,0.497352,-1.527449,-0.52184,0.072542919,0.074814555,-0.479332468,-0.823964106,0.551150835,-1.367513201
1336679,-0.419097,0.36499,-0.030638,0.450699,-1.446184,-0.503649,0.056710326,0.080252573,-0.452147697,-0.781328622,0.548262275,-1.279521054
1336689,-0.433275,0.373791,-0.032348,0.410436,-1.349032,-0.473938,0.054944397,0.08205437,-0.435428017,-0.724002857,0.528270445,-1.187313133
1336699,-0.438164,0.388459,-0.018422,0.356114,-1.254324,-0.4418,0.057902455,0.066252138,-0.420788972,-0.676372585,0.506469146,-1.086895693
1336709,-0.439875,0.404838,-0.004006,0.320325,-1.115012,-0.418152,0.061942983,0.049466816,-0.407449605,-0.581041952,0.479963395,-0.976082143
1336719,-0.42252,0.418773,-9.70E-05,0.291566,-0.965924,-0.392078,0.077010502,0.038190545,-0.411353374,-0.477134277,0.446564808,-0.862941376
1336729,-0.401497,0.420729,-0.008404,0.265364,-0.802782,-0.382983,0.092874656,0.041087445,-0.427313803,-0.368717466,0.420864428,-0.740589991
1336791,-0.352364,0.434419,-0.049696,0.157997,0.012926,-0.438162,0.138039002,0.062422849,-0.459261089,0.214084954,0.385170359,-0.151418289
1336801,-0.406142,0.473289,-0.054093,0.133073,0.114966,-0.441194,0.131673947,0.067244607,-0.391707316,0.278953095,0.37928807,-0.062477846
1336811,-0.445742,0.513626,-0.045053,0.10687,0.21945,-0.42846,0.129145706,0.055759709,-0.333111994,0.339013242,0.356739751,0.031052257
1336821,-0.457231,0.534894,-0.021109,0.103035,0.311714,-0.429673,0.123913698,0.027324995,-0.307528984,0.404951397,0.344172575,0.099801405
1336831,-0.448431,0.545651,-0.011581,0.092171,0.389313,-0.433917,0.126333929,0.011348888,-0.305111206,0.454594697,0.33818537,0.165282741
1336841,-0.429364,0.546873,-0.001563,0.074916,0.458969,-0.445438,0.128209638,-0.004919778,-0.316652321,0.49446819,0.341828659,0.230942284
1336851,-0.432786,0.559585,0.003568,0.053187,0.51946,-0.464842,0.12560777,-0.013885644,-0.303952802,0.525001723,0.355498603,0.294515819
1336861,-0.483875,0.592588,0.007233,0.03018,0.587894,-0.482427,0.115699038,-0.01326884,-0.243834978,0.564075383,0.365660413,0.356899738
1336922,-0.614165,0.707731,0.009432,-0.080382,0.8378,-0.352058,0.1019335,-0.015735933,-0.068585635,0.631849117,0.218982991,0.620586887
1336932,-0.625409,0.716532,-0.00645,-0.107863,0.858574,-0.309612,0.091291655,-0.001409768,-0.053289921,0.607897207,0.181908412,0.664841069
1336942,-0.632498,0.725578,0.01725,-0.140457,0.877516,-0.269592,0.076514295,-0.021843042,-0.040581863,0.580942177,0.151546548,0.708507005
1336952,-0.620276,0.722644,0.047547,-0.169855,0.902568,-0.225327,0.065613233,-0.049522482,-0.050021152,0.559258156,0.116239454,0.753638293
1336962,-0.587765,0.70822,0.054388,-0.19414,0.92823,-0.177425,0.065231003,-0.056631083,-0.082100684,0.53921379,0.076241067,0.796377229
1336972,-0.601698,0.729733,0.043393,-0.236959,0.944728,-0.133766,0.059500258,-0.044598529,-0.056122689,0.499067234,0.043864701,0.845908794
1336982,-0.700454,0.792806,0.026046,-0.274026,0.949616,-0.085257,0.021117447,-0.017608198,0.05787502,0.453859395,0.007921152,0.882087557
1336992,-0.758143,0.826542,0.019693,-0.307897,0.971002,-0.049481,0.003432926,-0.0068336,0.121731616,0.436850724,-0.024696717,0.921219482
1337053,-0.665987,0.751002,0.068803,-0.527104,0.854297,0.064516,0.013165289,-0.050266788,0.004776824,0.182999761,-0.078210222,0.986011437
1337063,-0.760832,0.80674,0.094213,-0.562254,0.835967,0.04875,-0.012280909,-0.059398981,0.111256851,0.157213908,-0.046804226,0.995208571
1337073,-0.823655,0.82043,0.091037,-0.573757,0.834134,0.034804,-0.03469553,-0.041919844,0.164834592,0.16089483,-0.023772121,0.999867833
1337083,-0.814366,0.794272,0.083707,-0.569284,0.83169,0.021464,-0.033894759,-0.026498815,0.139831484,0.173959532,-0.002687168,0.992967317
1337093,-0.739565,0.74489,0.063184,-0.568006,0.830468,0.012368,-0.027936559,-0.010233148,0.051153914,0.160597621,0.010762338,0.993253975
1337103,-0.674054,0.703087,0.045836,-0.556502,0.798084,-0.012493,-0.006384207,0.008349091,-0.024976617,0.140963993,0.073965988,0.959920209
1337113,-0.635432,0.693064,0.074423,-0.548833,0.751035,-0.047662,0.014298495,-0.011320723,-0.056963568,0.109301811,0.115561464,0.917737196
1337123,-0.656209,0.722155,0.126464,-0.549472,0.702154,-0.076768,-2.21E-17,5.13E-17,-0.01607356,0.043012484,0.196735543,0.871939274
1337184,-0.660121,0.594544,0.029955,-0.479812,0.52557,-0.028865,-0.09024459,0.064762441,-0.118069535,-0.009919982,0.112898871,0.703158593
1337194,-0.61832,0.581343,0.006988,-0.52327,0.444916,-0.029471,-0.064994038,0.078015772,-0.157374667,-0.090990564,0.092955385,0.675063177
1337204,-0.654009,0.628036,-0.004739,-0.568006,0.370371,-0.045843,-0.055620721,0.089668717,-0.099419463,-0.171522418,0.089681121,0.651493999
1337214,-0.679921,0.661772,0.005034,-0.633193,0.271387,-0.058577,-0.043297612,0.078896347,-0.055457375,-0.28257222,0.078177562,0.626144355
1337224,-0.699476,0.675951,0.020426,-0.681124,0.190121,-0.076768,0.004112753,0.014918605,-0.027192634,-0.336345385,0.089945283,0.620282881
1337234,-0.698254,0.673506,0.023114,-0.719469,0.120465,-0.080406,2.61E-05,0.015674143,-0.029712641,-0.415460186,0.091735572,0.597988296
1337244,-0.692876,0.668861,0.032643,-0.750784,0.061196,-0.078587,0.004967248,0.02150415,-0.036656524,-0.47767026,0.093861006,0.580188517
1337254,-0.75301,0.710665,0.070758,-0.764844,0.031257,-0.075555,-0.00504047,-0.012888969,0.037730199,-0.508885744,0.089103997,0.569883918
1337316,-0.657432,0.702598,0.042171,-0.573757,0.121687,-0.127703,0.046727327,0.007985821,-0.038027048,-0.317855279,0.139635458,0.489676258
1337325.875,-0.678454,0.729,0.003323,-0.557141,0.110689,-0.187733,0.01478645,-0.003890655,-0.004249983,-0.32694923,0.185003857,0.465595964
1337335.75,-0.718543,0.747579,-0.006205,-0.526465,0.103968,-0.262922,0.010944683,0.018216807,0.036708864,-0.305853881,0.264457755,0.440020703
1337345.625,-0.74421,0.766403,0.0065,-0.49515,0.100913,-0.324165,-0.000686981,-0.000908167,0.068299132,-0.290206569,0.321906759,0.415446854
1337355.5,-0.75301,0.769581,0.010653,-0.451053,0.119854,-0.377525,-0.011038631,-0.012417085,0.076622695,-0.249903089,0.37225261,0.399143278
1337365.375,-0.732721,0.760536,0.00259,-0.396091,0.13513,-0.411482,-0.012944114,-0.008318398,0.055966398,-0.205250438,0.405066217,0.371832288
1337375.25,-0.697521,0.760536,-0.009626,-0.335378,0.149794,-0.446045,0.002183529,0.001223504,0.032006273,-0.15646407,0.439413311,0.341039183
1337385.125,-0.645943,0.749535,-0.016711,-0.279138,0.152849,-0.489097,1.10E-16,-1.63E-16,-0.010391829,-0.104613678,0.485568541,0.306228486
1337446,-0.692143,0.807229,0.004545,-0.043954,0.107634,-0.582477,0.0004057,-0.012232026,0.063273935,0.044617298,0.581114724,0.114505291
1337456,-0.676987,0.802095,-0.002296,-0.022865,0.100302,-0.511532,-0.003328811,-0.008036887,0.049570096,0.053428759,0.509964023,0.096593735
1337466,-0.671854,0.803318,-0.009382,-0.003692,0.086859,-0.433311,-0.003047935,0.008696376,0.047239567,0.057940631,0.432591553,0.069454812
1337476,-0.668676,0.805029,-0.004251,0.013563,0.078305,-0.363579,0.00364316,-0.008905725,0.046482093,0.064913333,0.362168841,0.055904448
1337486,-0.67601,0.812118,-0.016711,0.016759,0.066696,-0.272018,0.017732847,-0.004506152,0.056631281,0.059383281,0.270502733,0.044999004
1337496,-0.701676,0.828253,-0.0172,0.018676,0.055697,-0.162265,-0.004560691,0.002382688,0.085643405,0.051923397,0.161261598,0.032856309
1337506,-0.716099,0.83901,-0.019399,0.015481,0.052642,-0.060396,0.006042894,-0.002461635,0.10320864,0.046777319,0.059279673,0.030924443
1337516,-0.717565,0.838765,-0.019155,0.019315,0.047754,0.047537,0.004770193,-0.002706691,0.103976036,0.045286089,-0.048499762,0.022588124
1337578,-0.674543,0.815296,-0.023308,-0.010083,0.034923,0.494429,0.00555708,-0.006794949,0.058386525,0.009463501,-0.495300649,0.019210105
1337587.875,-0.684076,0.81383,-0.032348,-0.008805,0.0392,0.525354,0.003083855,-0.006486027,0.063613678,0.013097244,-0.526468878,0.016430959
1337597.75,-0.692387,0.810652,-0.038212,-0.016474,0.041644,0.572044,0.001253497,0.006733665,0.066756611,0.008616475,-0.573164655,0.025455599
1337607.625,-0.69581,0.796717,-0.028439,-0.010083,0.053253,0.603575,-0.005949439,0.005703693,0.058135333,0.021034413,-0.604689877,0.033882681
1337617.5,-0.68921,0.775204,-0.015245,-0.007527,0.063641,0.6345,-0.011954449,0.00187517,0.037322347,0.029865366,-0.635456123,0.04472872
1337627.375,-0.678943,0.762247,-0.006938,-0.006887,0.074028,0.645414,-0.003099638,0.010697874,0.020739031,0.0404223,-0.645417542,0.062362178
1337637.25,-0.677476,0.755158,0.005034,-0.009444,0.084415,0.646021,0.008807205,0.003144525,0.014482736,0.053300427,-0.64518069,0.073886102
1337647.125,-0.686765,0.755402,0.006744,0.003977,0.094191,0.629649,8.19E-18,9.23E-17,0.020942618,0.070081536,-0.628783034,0.071176535
1337708,-0.687987,0.727533,-0.021842,0.073637,0.190732,0.334955,-0.012919276,0.017184789,0.00132174,0.185719652,-0.334091308,0.088809707
1337718,-0.706076,0.739268,-0.017444,0.091532,0.200508,0.267648,0.002736926,0.008696916,0.02239017,0.20069707,-0.271478579,0.078975213
1337728,-0.723188,0.751002,-0.00816,0.106231,0.217006,0.223383,0.013203257,-0.00291627,0.042539516,0.224713846,-0.227572795,0.077400934
1337738,-0.746654,0.762492,-0.008649,0.131155,0.235336,0.171236,0.01484369,0.002994443,0.067113747,0.256926813,-0.175279411,0.071917838
1337748,-0.758877,0.759314,-0.00645,0.15608,0.257944,0.142737,0.008058496,-0.01397433,0.073421368,0.291306932,-0.147990746,0.067148605
1337758,-0.754721,0.747579,-0.008404,0.172057,0.279941,0.120301,-0.001534074,-0.003483147,0.062324946,0.318303608,-0.125181028,0.073860875
1337768,-0.748121,0.743179,-0.004006,0.180365,0.299493,0.10211,-0.000321869,0.00029369,0.054521652,0.33833048,-0.106402335,0.082855728
1337778,-0.745432,0.738779,0.009676,0.191869,0.317824,0.096047,-0.001707941,-0.013355168,0.049464447,0.359511299,-0.100605692,0.087641057
1337839,-0.77061,0.71531,0.039239,0.189312,0.331266,0.21732,-0.030240978,-0.036499777,0.051095199,0.366609272,-0.221066522,0.097628955
1337848.875,-0.763032,0.705042,0.039239,0.181004,0.3276,0.251276,-0.027534473,-0.02994354,0.038839252,0.358535941,-0.253893405,0.101064111
1337858.75,-0.758388,0.702353,0.043393,0.164388,0.32149,0.288871,-0.019644082,-0.028495686,0.033990887,0.343240436,-0.290259092,0.108449766
1337868.625,-0.769877,0.702353,0.040461,0.145854,0.317213,0.326466,-0.018745899,-0.021073146,0.042521912,0.328407498,-0.326663216,0.117971118
1337878.5,-0.787721,0.707731,0.037285,0.129238,0.30927,0.347082,-0.017966373,-0.013226586,0.059377166,0.312589696,-0.34612112,0.123709986
1337888.375,-0.80581,0.713354,0.040217,0.110065,0.295827,0.37073,-0.017565938,-0.01059825,0.076754479,0.291088377,-0.36851314,0.128585665
1337898.25,-0.814121,0.707976,0.047058,0.084502,0.27933,0.381645,-0.020613162,-0.010504885,0.079676905,0.262997849,-0.377842559,0.137425889
1337908.125,-0.809477,0.704553,0.052922,0.058299,0.264665,0.387102,-0.020053512,-0.016561006,0.07413792,0.234536701,-0.382903601,0.147212983
1337967,-0.822677,0.719466,0.080775,-0.042037,0.104579,0.171842,-0.016194181,-0.031825544,0.09529825,0.049315343,-0.167217089,0.108811725
1337977,-0.822677,0.728756,0.085417,-0.04715,0.072806,0.103323,-0.007631473,-0.0237965,0.102068194,0.02259788,-0.098490004,0.089378596
1337987,-0.822188,0.731445,0.089327,-0.061849,0.047754,0.049356,-0.002181512,-0.01491207,0.103973315,-0.005574568,-0.043988988,0.081090389
1337997,-0.826344,0.7312,0.096656,-0.073352,0.015981,-0.013099,-0.001472119,-0.009037599,0.10759035,-0.036746064,0.018203508,0.064232789
1338007,-0.836366,0.736823,0.108384,-0.076548,-0.007237,-0.068279,0.001708367,-0.00669921,0.11987299,-0.056074395,0.07269209,0.0463197
1338017,-0.863499,0.753202,0.118401,-0.077187,-0.030456,-0.110118,-0.000176676,0.000119334,0.151938595,-0.073944562,0.113295097,0.026604466
1338027,-0.887699,0.775449,0.127197,-0.079104,-0.041454,-0.138617,-0.010669412,0.005542831,0.185480993,-0.083712424,0.141181265,0.015831301
1338037,-0.902611,0.801851,0.132817,-0.073352,-0.061618,-0.156808,-0.000852404,0.003181355,0.214619756,-0.094972981,0.157263415,-0.003793917
1338099,-1.004544,0.89157,0.200251,-0.029895,-0.079949,0.033591,-0.001697167,-0.032703508,0.357583801,-0.079566101,-0.037213471,-0.026425406
1338108.875,-1.023611,0.905015,0.209535,-0.012639,-0.066506,0.093621,-0.002818658,-0.023311623,0.382094486,-0.05804144,-0.097496068,-0.021757574
1338118.75,-1.044878,0.918461,0.207336,0.006533,-0.052453,0.163353,0.005084436,-0.005941919,0.406509048,-0.034892911,-0.167383175,-0.015606321
1338128.625,-1.0571,0.921639,0.20074,0.01612,-0.034733,0.220958,-0.00121673,-0.013381713,0.416684458,-0.015106111,-0.223675824,-0.005440997
1338138.5,-1.060522,0.924084,0.198541,0.018037,-0.026179,0.268255,-0.001615047,0.005026223,0.420573408,-0.007286313,-0.269917079,0.007943469
1338148.375,-1.058811,0.913327,0.219064,0.022511,-0.02068,0.293722,-0.010583267,-0.000915806,0.415317326,-9.74E-05,-0.294922785,0.015085166
1338158.25,-1.058811,0.917483,0.241298,0.025067,-0.001127,0.30403,-0.009550211,-0.007023743,0.421597684,0.016371651,-0.303060937,0.030820494
1338168.125,-1.054656,0.917239,0.25669,0.030819,0.017203,0.296147,-0.006956218,-0.022740573,0.420897919,0.033918358,-0.293964562,0.03719114
1338228,-0.966655,0.86419,0.199274,0.05063,0.122298,-0.253827,0.013814651,0.001038863,0.311779116,0.12476867,0.257625688,0.003182373
1338238,-0.954677,0.843166,0.193654,0.035931,0.114355,-0.39511,0.006792726,-0.011935193,0.288274179,0.108905568,0.398189176,-0.008060539
1338248,-0.948077,0.833631,0.188279,0.018676,0.101524,-0.56368,0.019175952,0.004717414,0.276263943,0.087401412,0.565321106,-0.034118882
1338258,-0.947344,0.823853,0.185347,0.005894,0.091136,-0.683134,0.020465731,-0.008568768,0.268879687,0.070942578,0.684291132,-0.041537567
1338268,-0.948811,0.811141,0.172886,0.00206,0.077694,-0.754685,0.013070669,-0.011391637,0.260071821,0.058303028,0.754853088,-0.04886331
1338278,-0.955655,0.812852,0.162625,0.001421,0.064863,-0.785003,0.018044615,-0.015273551,0.26486871,0.048192618,0.784513076,-0.051532934
1338288,-0.954677,0.812118,0.089327,0.003977,0.045921,-0.801982,0.01234195,0.047918074,0.255577424,0.036175589,0.800148053,-0.061270739
1338298,-0.933411,0.80014,0.131106,0.018037,0.025146,-0.799556,0.016850254,0.003779535,0.236272899,0.029232466,0.795093625,-0.084964947
1338359,-0.884522,0.786205,0.112293,0.09984,-0.047565,-0.587328,0.029579136,0.007679596,0.188348975,0.028340624,0.573521588,-0.16569379
1338368.875,-0.87401,0.77716,0.103497,0.126043,-0.03901,-0.520628,0.017947485,0.00757895,0.173969004,0.054323701,0.506681108,-0.169662379
1338378.75,-0.85861,0.767626,0.103986,0.157358,-0.021902,-0.420577,0.009036722,-0.003073651,0.156366199,0.089872439,0.406877268,-0.168819679
1338388.625,-0.848099,0.757358,0.098855,0.193786,-0.004793,-0.330835,-0.004827791,-0.0073254,0.141296804,0.12883608,0.316875352,-0.173260094
1338398.5,-0.839299,0.755402,0.093724,0.223184,0.007427,-0.236242,-0.013218684,-0.013421801,0.132909662,0.15912809,0.222655991,-0.175439738
1338408.375,-0.831232,0.75418,0.087372,0.224462,0.014148,-0.008248,0.009826024,-0.012213722,0.125665248,0.159868695,-0.004201272,-0.158353196
1338418.25,-0.818766,0.691108,0.069292,0.241078,0.009871,-0.104054,-0.041564129,-0.00611517,0.072867391,0.171110923,0.091473638,-0.177191702
1338428.125,-0.809477,0.748802,0.062206,0.233409,-0.002349,-0.062215,0.007433084,0.002138562,0.104430718,0.156326148,0.049759874,-0.177319135
1338489,-0.740543,0.695997,0.096901,0.274311,-0.021291,0.119088,0.007363864,-0.02841606,0.020462573,0.168422072,-0.136191449,-0.207286464
1338499,-0.725876,0.691597,0.098855,0.278145,-0.043899,0.111206,-0.006250688,0.009048111,0.007399498,0.173993052,-0.118662289,-0.217495325
1338509,-0.708765,0.680107,0.106185,0.272393,-0.06284,0.089983,-0.015988566,-0.004970559,-0.012129426,0.158641974,-0.097831269,-0.226948274
1338519,-0.697765,0.673506,0.104475,0.269198,-0.084226,0.062696,-0.005189543,0.009203257,-0.024659177,0.136536711,-0.077513448,-0.242573211
1338529,-0.686521,0.663728,0.105208,0.26792,-0.101334,0.028134,0.007604777,-0.000451206,-0.039345729,0.116650081,-0.044448083,-0.259342157
1338539,-0.679676,0.650282,0.105208,0.271754,-0.123331,-0.007642,0.000175876,0.007131994,-0.053509656,0.100609751,-0.015578954,-0.280631692
1338549,-0.68041,0.649304,0.111072,0.274311,-0.137995,-0.033716,-0.000320075,0.011199277,-0.053023276,0.089297316,0.004448974,-0.295689211
1338559,-0.684076,0.650771,0.135016,0.283258,-0.153882,-0.064034,0.000537508,-0.012102152,-0.046299084,0.081223129,0.031595538,-0.316890585
1338620,-0.680165,0.629502,0.134038,0.242995,-0.304803,-0.04463,-0.009827935,-0.003162758,-0.063647081,-0.053219238,-0.015351509,-0.388426724
1338630,-0.669654,0.629013,0.139658,0.228296,-0.334132,-0.045843,-0.017100811,-0.006169875,-0.070878003,-0.078232196,-0.019433642,-0.399207834
1338640,-0.672832,0.687685,0.145033,0.205289,-0.37507,-0.036748,0.014692652,0.00402921,-0.027160845,-0.117135351,-0.042677157,-0.41064518
1338650,-0.696787,0.633169,0.143323,0.191869,-0.408065,-0.019769,-0.025992533,-0.00337262,-0.048018066,-0.153532486,-0.06620666,-0.419244588
1338660,-0.712921,0.626324,0.137459,0.182282,-0.440449,0.013581,-0.030094263,0.000144821,-0.041601651,-0.184438957,-0.104104863,-0.427259806
1338670,-0.720988,0.614346,0.123532,0.165666,-0.457557,0.060877,-0.034597677,0.009377769,-0.045421602,-0.207271647,-0.151784146,-0.417743556
1338680,-0.699476,0.603834,0.119623,0.159914,-0.490552,0.10211,-0.018614818,0.00732022,-0.068446599,-0.234536342,-0.195895734,-0.428086171
1338690,-0.669898,0.59161,0.11889,0.156719,-0.529047,0.123333,-0.007602188,0.005300244,-0.098437651,-0.261841628,-0.22401643,-0.448239002
1338751,-0.55012,0.537094,0.12622,0.147132,-0.677524,-0.238668,0.026614941,-0.005822765,-0.221352963,-0.416836036,0.099425614,-0.594988468
1338761,-0.543276,0.517537,0.121089,0.159914,-0.67508,-0.334473,0.009928748,0.003874826,-0.240037955,-0.411592847,0.189016616,-0.622929955
1338771,-0.534964,0.521449,0.13355,0.150328,-0.670192,-0.418758,0.017281437,0.002727858,-0.241300419,-0.42064207,0.26668914,-0.631705025
1338781,-0.54792,0.536116,0.165068,0.14202,-0.660415,-0.495767,0.020519218,-0.013251338,-0.216235048,-0.424372894,0.337906093,-0.638615448
1338791,-0.554031,0.547362,0.192188,0.132433,-0.648806,-0.549127,0.025686797,-0.025443437,-0.198635816,-0.424798807,0.386390345,-0.640528424
1338801,-0.554031,0.544917,0.199518,0.1139,-0.637197,-0.595211,0.01968066,-0.023113371,-0.198270144,-0.427345559,0.429917329,-0.637037067
1338811,-0.539364,0.520715,0.170443,0.084502,-0.637808,-0.621285,0.011696089,-0.0066341,-0.231281819,-0.449082758,0.464801622,-0.618238476
1338821,-0.514431,0.49578,0.131839,0.053187,-0.659804,-0.635837,0.007963417,0.023409387,-0.273909669,-0.48776962,0.477407212,-0.613695378
1338882,-0.22623,0.380636,0.00992,-0.346882,-1.110124,-0.78561,0.113538601,0.091180987,-0.581721149,-1.091885919,0.573529716,-0.669876327
1338892,-0.27463,0.39946,0.039239,-0.38331,-1.149229,-0.772876,0.09293076,0.072166488,-0.528104355,-1.136505449,0.562246458,-0.676184477
1338902,-0.313497,0.405083,0.057564,-0.427407,-1.171226,-0.73225,0.067995475,0.060698087,-0.492675077,-1.172896037,0.528324891,-0.660170316
1338912,-0.331097,0.406794,0.069292,-0.461278,-1.168171,-0.653422,0.054701377,0.052375898,-0.476385172,-1.183654768,0.461413366,-0.624836206
1338922,-0.33843,0.404105,0.070513,-0.486203,-1.129066,-0.56368,0.044738877,0.052007822,-0.47264678,-1.16371633,0.38960258,-0.568236453
1338932,-0.341852,0.404349,0.072712,-0.505375,-1.061243,-0.466055,0.038232036,0.051152338,-0.469368595,-1.119700813,0.313931211,-0.496553263
1338942,-0.323764,0.409972,0.074911,-0.506653,-0.984866,-0.395716,0.050632847,0.048132361,-0.476902096,-1.059785371,0.263549942,-0.436630106
1338952,-0.311052,0.424151,0.064649,-0.507931,-0.888325,-0.318708,0.069221688,0.059147163,-0.477939772,-0.991373459,0.207256255,-0.350590225
1339014,-0.291008,0.486245,0.045592,-0.231846,-0.23698,0.028134,0.11930029,0.08340756,-0.450446448,-0.329973087,-0.042173145,-0.006541983
1339023.875,-0.329875,0.52096,0.051456,-0.183275,-0.135551,0.041474,0.108141548,0.084178826,-0.396606357,-0.225285895,-0.042864847,0.033056954
1339033.75,-0.355786,0.559096,0.042416,-0.117449,-0.015181,0.046325,0.107933949,0.096806699,-0.351964617,-0.096205375,-0.034614977,0.075611276
1339043.625,-0.360675,0.580609,0.024824,-0.070796,0.102135,0.028134,0.112283271,0.111629402,-0.334612262,0.014984453,-0.002876153,0.126500386
1339053.5,-0.343319,0.58721,0.018472,-0.031173,0.178512,-0.153776,0.122692172,0.110238205,-0.339834185,0.087749041,0.182887347,0.123845357
1339063.375,-0.332564,0.588677,0.017739,0.003338,0.260388,-0.036748,0.124556264,0.103522825,-0.343324389,0.168794937,0.076239944,0.186706209
1339073.25,-0.372897,0.621435,0.050234,0.017398,0.334932,-0.054332,0.10706058,0.073591908,-0.285241754,0.223860764,0.102209588,0.234251274
1339083.125,-0.486075,0.70602,0.110583,0.041044,0.424752,-0.05797,0.075123624,0.03592857,-0.139751591,0.298923637,0.117310023,0.286953672
1339144,-0.382675,0.656149,-0.010359,0.157997,0.852464,0.042686,0.114834881,0.127068677,-0.259901712,0.660227731,0.06676189,0.55957324
1339154,-0.487786,0.739756,-0.015734,0.114539,0.865907,0.036623,0.082507872,0.13605047,-0.128160335,0.632760988,0.070825754,0.599043073
1339164,-0.588987,0.803073,-0.019155,0.081946,0.875072,0.045112,0.012525576,0.000285353,-0.003987012,0.591377135,-0.061757533,0.648814562
1339174,-0.625409,0.828498,-0.013291,0.058938,0.89768,0.066335,-0.015541245,-0.004909418,0.038005959,0.577607516,-0.078500502,0.688411673
1339184,-0.615387,0.817741,-0.019155,0.032736,0.906845,0.096653,-0.009079741,-0.015815267,0.023443136,0.564413404,-0.124695824,0.706165535
1339194,-0.56112,0.77496,-0.042121,0.007172,0.902568,0.123333,-0.004872745,-0.001815791,-0.042312267,0.531584719,-0.156136978,0.723139262
1339204,-0.496098,0.726311,-0.046764,-0.020947,0.883015,0.142737,0.011803788,0.011481623,-0.119343081,0.492183166,-0.167927819,0.728068745
1339214,-0.485831,0.724355,-0.001074,-0.062488,0.84391,0.153045,0.019465853,-0.033805879,-0.128678404,0.435796923,-0.178385324,0.71956329
1339275,-0.489986,0.677907,-0.06802,-0.196057,0.682601,0.203373,-0.001830643,0.037704391,-0.161640931,0.243238183,-0.223886462,0.660645963
1339285,-0.535698,0.720444,-0.02624,-0.24335,0.628221,0.199735,-0.005668563,-0.000322823,-0.101852905,0.17993843,-0.215137035,0.64429274
1339295,-0.669165,0.808696,0.013341,-0.270191,0.589116,0.20398,-0.050976517,-0.038702845,0.04778456,0.141961605,-0.21471677,0.628818169
1339305,-0.738343,0.828253,0.041194,-0.278499,0.581172,0.228841,-0.084250569,-0.06238362,0.105377985,0.137962533,-0.234896945,0.627280284
1339315,-0.733699,0.791828,0.052189,-0.275943,0.59156,0.262191,-0.094311168,-0.066230816,0.074592192,0.153504989,-0.262466472,0.634333873
1339325,-0.630298,0.74049,0.028978,-0.27083,0.602558,0.280988,4.64E-05,-0.012652049,-0.027230419,0.192558951,-0.26433442,0.639083448
1339335,-0.605609,0.702353,0.000392,-0.268274,0.594004,0.296147,-0.014113452,0.003349058,-0.072718087,0.186218892,-0.286431693,0.629121726
1339345,-0.543276,0.672773,-0.028195,-0.284251,0.565897,0.287052,0.013637362,0.032714776,-0.135528459,0.15561188,-0.27853783,0.617768983
1339406,-0.718299,0.762492,0.074911,-0.194779,0.607446,0.293722,-0.053443884,-0.065298302,0.046823311,0.25571671,-0.27605803,0.59296125
1339415.875,-0.656943,0.721422,0.0517,-0.179441,0.612334,0.291296,-0.017458476,-0.001445563,-0.023071236,0.282668417,-0.245988521,0.592953264
1339425.75,-0.604876,0.702842,0.052677,-0.177524,0.598892,0.274925,-0.005581312,-0.00190857,-0.071236346,0.266192598,-0.228125057,0.585551546
1339435.625,-0.610987,0.728756,0.057564,-0.185832,0.575062,0.236724,0.013927652,-0.015231816,-0.047488557,0.247627557,-0.196944384,0.566711206
1339445.5,-0.670632,0.771782,0.043882,-0.195418,0.545733,0.193065,0.008262966,-0.010946809,0.023294804,0.221887857,-0.166455862,0.544375809
1339455.375,-0.705587,0.781316,0.02458,-0.213952,0.526181,0.16214,-0.004838786,-0.003235297,0.053032764,0.198416308,-0.141728122,0.538029173
1339465.25,-0.708521,0.773004,0.008943,-0.227372,0.50785,0.126365,-0.010375414,-0.000932048,0.04857458,0.176566854,-0.11274978,0.53074419
1339475.125,-0.674787,0.739512,-0.01549,-0.25038,0.480355,0.091802,1.64E-17,-1.57E-16,0.001226964,0.137400743,-0.101841295,0.522118822
1339536,-0.685298,0.800629,0.076622,-0.368611,0.215173,-0.387227,0.035450556,-0.080640303,0.052972685,-0.122250802,0.38706541,0.409088436
1339545.875,-0.69581,0.790116,0.106429,-0.35519,0.215784,-0.439981,0.025011024,-0.097792372,0.05336275,-0.1115068,0.444003409,0.395895387
1339555.75,-0.696787,0.77227,0.122555,-0.3341,0.223727,-0.476363,0.016484929,-0.102218916,0.042215114,-0.090753758,0.48414826,0.382050398
1339565.625,-0.675765,0.755402,0.154562,-0.292559,0.254278,-0.501224,-0.000689839,0.011067561,0.025210691,-0.123824733,0.544921071,0.298667088
1339575.5,-0.67821,0.780093,0.191944,-0.252936,0.272609,-0.49516,0.014072226,-0.010962709,0.051207964,-0.084096675,0.544926631,0.281883714
1339585.375,-0.698743,0.814074,0.202694,-0.220982,0.292161,-0.473331,0.010486254,-0.017695665,0.091613493,-0.048775715,0.526502632,0.280444715
1339595.25,-0.707054,0.820675,0.185836,-0.186471,0.306215,-0.438162,0.003513449,-0.0117105,0.099007895,-0.010719104,0.492049075,0.279817453
1339605.125,-0.69581,0.825075,0.163358,-0.169215,0.312936,-0.38177,0.011723738,0.011244376,0.091477103,0.014592507,0.438434908,0.282617903
1339666,-0.767188,0.849766,0.16067,-0.203087,0.265887,0.225203,-0.020082249,0.0080843,0.155865857,0.047130295,-0.168087283,0.36356845
1339676,-0.765477,0.838521,0.143567,-0.219064,0.265276,0.345869,-0.0256941,0.0101656,0.144080619,0.054220401,-0.290428764,0.388197164
1339686,-0.759121,0.83412,0.115714,-0.228651,0.262221,0.449558,-0.027629179,0.023848373,0.133171867,0.062252069,-0.397093969,0.401975854
1339696,-0.74421,0.819697,0.085417,-0.233124,0.258555,0.532024,-0.029960699,0.038964704,0.109338482,0.071321672,-0.482979975,0.407296682
1339706,-0.728565,0.79525,0.062206,-0.24974,0.243891,0.578108,-0.037767469,0.045922274,0.078686178,0.058794536,-0.535912535,0.406697313
1339716,-0.701432,0.766648,0.041927,-0.265718,0.226171,0.613883,-0.039637155,0.050794424,0.037960839,0.043229333,-0.579316699,0.401416369
1339726,-0.682121,0.749046,0.022625,-0.282973,0.196231,0.625404,0.007001867,-0.00547729,0.013307373,-0.060090506,-0.621283593,0.346563581
1339736,-0.688476,0.752713,0.021648,-0.288086,0.163236,0.626011,3.39E-17,-2.80E-17,0.02031598,-0.090371891,-0.621059541,0.328096442
1339797,-0.673321,0.725089,0.058053,-0.252936,-0.02679,0.339806,-0.004905574,-0.024565777,-0.009112602,-0.197423185,-0.338646045,0.162804741
1339806.875,-0.689454,0.732911,0.053166,-0.238237,-0.049398,0.269467,0.001383184,0.013246091,0.007548809,-0.193643727,-0.270643792,0.145132835
1339816.75,-0.708521,0.743668,0.072957,-0.222899,-0.086059,0.182757,0.000144668,0.013677092,0.029650301,-0.208242962,-0.189042772,0.106714272
1339826.625,-0.717076,0.749291,0.086639,-0.201809,-0.097057,0.100898,0.006892192,0.013174273,0.04063454,-0.205376471,-0.108159967,0.080307327
1339836.5,-0.723188,0.748068,0.094457,-0.177524,-0.125164,0.037229,0.005033511,0.019199229,0.044573977,-0.211578151,-0.048126648,0.038539691
1339846.375,-0.723432,0.744157,0.100566,-0.153238,-0.134329,-0.024014,0.007662185,0.003563142,0.042672343,-0.204680122,0.010803441,0.009600541
1339856.25,-0.741032,0.74709,0.092747,-0.123201,-0.147161,-0.074949,-0.000332456,0.002274969,0.056346824,-0.195728736,0.059548384,-0.024422343
1339866.125,-0.759854,0.765425,0.076133,-0.105307,-0.150216,-0.122852,-0.002105244,0.021107323,0.081017953,-0.18843226,0.106551548,-0.043440483
1339928,-0.749099,0.739023,0.088838,0.060856,-0.148994,-0.244731,-0.0036189,-0.004881637,0.05601116,-0.078521592,0.227286605,-0.167245586
1339938,-0.739565,0.738534,0.082974,0.077472,-0.153271,-0.252008,-0.011155581,0.004369405,0.048394012,-0.067451978,0.233455533,-0.184257123
1339948,-0.731988,0.74269,0.08615,0.09281,-0.155104,-0.257465,-0.005163349,-0.009309595,0.046280728,-0.057128163,0.240657452,-0.194369589
1339958,-0.72661,0.745868,0.080775,0.102396,-0.163047,-0.249582,-0.002292214,-0.014563892,0.044312408,-0.05419631,0.234237314,-0.203853085
1339968,-0.730521,0.755891,0.069292,0.115178,-0.166713,-0.244125,-0.004065915,-0.012776387,0.053401039,-0.045618155,0.230720776,-0.212939238
1339978,-0.731254,0.762247,0.060985,0.136268,-0.171601,-0.230785,-0.014330408,-0.008615502,0.05791894,-0.029476989,0.218219677,-0.22975828
1339988,-0.735899,0.769337,0.05732,0.136907,-0.185044,-0.201073,-0.001417492,0.005898083,0.066149869,-0.038651157,0.185370982,-0.239914249
1339998,-0.733454,0.771293,0.062695,0.153523,-0.193598,-0.164691,0.0019835,0.000689848,0.066196002,-0.030559618,0.148382985,-0.255384459
1340059,-0.747388,0.805029,0.052189,0.14202,-0.232703,0.08877,0.004851928,0.0031624,0.099704807,-0.050269295,-0.104688914,-0.262132998
1340069,-0.757165,0.80454,0.055854,0.133073,-0.225982,0.132429,0.012740175,0.003124222,0.106133376,-0.053814365,-0.148482542,-0.247731057
1340079,-0.755943,0.799895,0.055854,0.138185,-0.223538,0.173055,-0.009258659,0.000363495,0.101959911,-0.042489819,-0.188187563,-0.248580814
1340089,-0.748121,0.795495,0.056098,0.129877,-0.217428,0.204586,0.007178189,0.005073274,0.093419886,-0.046464633,-0.220247617,-0.235224206
1340099,-0.74421,0.785472,0.058297,0.127321,-0.20704,0.227022,-0.012590739,0.010356913,0.083488595,-0.03744152,-0.24349284,-0.223438037
1340109,-0.735654,0.777404,0.062206,0.117095,-0.198486,0.229447,0.001121501,0.011946208,0.072039833,-0.042022114,-0.246265689,-0.208185517
1340119,-0.736388,0.771293,0.073445,0.103035,-0.189321,0.23066,-0.006692128,0.012885831,0.068804714,-0.045717459,-0.248662479,-0.189049129
1340129,-0.730521,0.770315,0.084929,0.094727,-0.178322,0.227022,-0.002655712,0.001198951,0.065012007,-0.044389272,-0.243874045,-0.175687141
1340190,-0.753499,0.774715,0.076133,0.096645,-0.089114,0.107568,-0.00526976,0.002719827,0.08337673,0.012121338,-0.116484792,-0.123031712
1340199.875,-0.766699,0.78156,0.073934,0.08578,-0.071394,0.086951,0.004100689,-0.000421564,0.097320661,0.014309662,-0.093716406,-0.105015508
1340209.75,-0.776232,0.786938,0.075156,0.096645,-0.061618,0.06209,-0.003349243,0.01057537,0.107850578,0.028341804,-0.069583434,-0.10652272
1340219.625,-0.774032,0.787672,0.084684,0.09984,-0.051231,0.032378,0.011597137,0.009451378,0.107474729,0.03560796,-0.040054779,-0.103772172
1340229.5,-0.783077,0.790116,0.09006,0.093449,-0.03901,0.00873,-0.010361541,0.004073,0.116010634,0.040303512,-0.015238895,-0.092054938
1340239.375,-0.789432,0.795984,0.095435,0.105592,-0.029845,-0.019163,0.003924618,0.006588203,0.125096637,0.053220986,0.012218593,-0.097086805
1340249.25,-0.800188,0.805518,0.10252,0.112622,-0.017625,-0.046449,0.00757015,0.012473782,0.139937512,0.065564502,0.039128222,-0.096551248
1340259.125,-0.817788,0.815052,0.112293,0.115817,0.002539,-0.055545,0.002200368,0.004499366,0.160030865,0.081775748,0.049924661,-0.085589289
1340320,-0.915077,0.900126,0.143323,0.147132,0.0392,-0.054332,-0.000468308,-0.001106416,0.291562144,0.129585995,0.049774812,-0.08286356
1340329.875,-0.928277,0.914305,0.14601,0.14905,0.037367,-0.032503,0.003613442,0.011262193,0.311041894,0.130166761,0.026873644,-0.083684298
1340339.75,-0.9449,0.923595,0.164824,0.151606,0.036145,-0.002791,0.000414531,0.007682977,0.331529754,0.131966783,-0.003825945,-0.082877984
1340349.625,-0.961277,0.935574,0.188035,0.163749,0.036756,0.031772,0.004607522,-0.000752369,0.354506385,0.14155904,-0.039760147,-0.086915864
1340359.5,-0.979855,0.937774,0.201228,0.186117,0.052031,0.079675,0.001293181,-0.000710571,0.371140557,0.169039985,-0.087956375,-0.085930367
1340369.375,-0.995255,0.940707,0.212467,0.205289,0.062419,0.125152,0.000728035,0.001002536,0.385858169,0.190646576,-0.134097321,-0.085875024
1340379.25,-0.992078,0.939485,0.20978,0.219988,0.070973,0.167598,-0.015165176,-0.011732637,0.382205062,0.20917955,-0.175519123,-0.083414204
1340389.125,-0.974233,0.932151,0.203183,0.2398,0.080138,0.188214,-0.008133172,-0.007574874,0.363523095,0.23015847,-0.196454462,-0.08822342
1340449,-0.909944,0.864434,0.189501,0.317769,0.068529,0.089983,-9.51E-05,4.85E-05,0.269312744,0.271747079,-0.108671041,-0.167673585
1340459,-0.892833,0.851477,0.187302,0.347167,0.077694,0.051175,-0.015497752,-0.011745448,0.247745066,0.30012041,-0.070784102,-0.184655124
1340469,-0.881344,0.844632,0.182415,0.3657,0.080749,0.000847,0.001856472,-0.002662193,0.234275156,0.311673395,-0.023887924,-0.206268442
1340479,-0.871566,0.838032,0.179483,0.389346,0.07525,-0.039779,-0.014170324,-0.001309197,0.222266976,0.326578203,0.012713331,-0.228079564
1340489,-0.862766,0.83192,0.177773,0.404045,0.074028,-0.078587,0.00785102,-0.003177691,0.211605365,0.331326464,0.049134671,-0.250433587
1340499,-0.862277,0.830209,0.177773,0.419383,0.05753,-0.114362,0.017562612,0.004744752,0.209975574,0.327137693,0.078407101,-0.281253844
1340509,-0.874255,0.829475,0.177773,0.427692,0.047754,-0.13316,0.005475318,-0.011534997,0.218109513,0.326497508,0.098247665,-0.294413401
1340519,-0.879144,0.827031,0.173131,0.434082,0.036145,-0.142862,0.000280794,-0.006748228,0.219345387,0.322312617,0.106082303,-0.308227702
1340579,-0.86521,0.796473,0.195364,0.459007,0.004983,-0.088289,-0.007566975,-0.02364212,0.191850858,0.316321074,0.042761173,-0.341496214
1340589,-0.858855,0.788405,0.205137,0.452616,0.001317,-0.090714,-0.005180415,-0.025153398,0.183484691,0.308267338,0.041594377,-0.341076478
1340599,-0.851033,0.777404,0.214422,0.444308,0.000706,-0.094352,-0.006584191,-0.026467112,0.17211223,0.30189344,0.04216095,-0.336742041
1340609,-0.828299,0.764203,0.213689,0.434082,-0.004182,-0.105267,0.013714038,-0.024592758,0.146715121,0.287192401,0.051045662,-0.338290819
1340619,-0.813388,0.690619,0.200984,0.423218,-0.012126,-0.116182,-0.046167988,-0.020155616,0.08462504,0.278853097,0.06073127,-0.333633685
1340629,-0.790166,0.742446,0.188279,0.395737,-0.020069,-0.142862,-0.008579129,-0.007662406,0.100411304,0.259440576,0.089605501,-0.319502005
1340639,-0.769388,0.737556,0.179727,0.359948,-0.039621,-0.174999,-0.011563515,0.001038269,0.080793111,0.225211254,0.122002949,-0.310084195
1340649,-0.753988,0.740001,0.180705,0.317769,-0.058563,-0.218051,0.000926153,-0.00164198,0.071797615,0.182759212,0.167828811,-0.300641916
1340711,-0.740054,0.761025,0.164579,-0.07527,-0.187488,-0.492735,0.015392638,0.012616944,0.07402472,-0.178211884,0.475812554,-0.159524423
1340720.875,-0.729054,0.755158,0.168733,-0.133427,-0.208873,-0.496373,0.009958019,0.003351624,0.063082203,-0.232670821,0.48523707,-0.135004166
1340730.75,-0.717565,0.750513,0.162625,-0.203087,-0.235758,-0.505469,0.011742967,0.001245827,0.05094088,-0.300220364,0.501133872,-0.105155358
1340740.625,-0.711943,0.742935,0.152119,-0.279138,-0.263865,-0.510926,0.005164425,0.005982698,0.040140844,-0.37339894,0.513613325,-0.073230615
1340750.5,-0.701432,0.744157,0.145766,-0.344325,-0.288917,-0.517596,0.008100285,0.007622409,0.032908758,-0.437032384,0.525979164,-0.047822302
1340760.375,-0.711699,0.759558,0.146499,-0.39673,-0.30908,-0.522447,0.004092408,0.007799374,0.051108082,-0.488437592,0.535189569,-0.029611668
1340770.25,-0.715854,0.765181,0.150164,-0.450414,-0.324356,-0.522447,-0.003724231,0.005104239,0.058516989,-0.537913798,0.540006801,-0.008476723
1340780.125,-0.707299,0.764692,0.149675,-0.49515,-0.334743,-0.515777,0.002199845,0.004539449,0.05233212,-0.577829385,0.537715481,0.015085624
1340842,-0.682121,0.736334,0.149431,-0.52327,-0.244923,-0.224115,0.002210415,-0.007025931,0.014767063,-0.544252511,0.258999923,0.143994952
1340852,-0.670876,0.723377,0.130862,-0.506653,-0.220483,-0.136798,0.002884427,-0.006089925,-0.004797333,-0.536592436,0.093430537,0.165417657
1340862,-0.668187,0.718732,0.119379,-0.483646,-0.197875,-0.06464,-0.000788179,0.015814171,-0.011541508,-0.495734384,0.033229064,0.174325984
1340872,-0.674543,0.724355,0.12964,-0.459361,-0.179544,0.023889,0.009950615,-0.002978129,-0.00180309,-0.45324822,-0.056553471,0.187582025
1340882,-0.68701,0.727289,0.125243,-0.436993,-0.169768,0.125759,0.005943282,-0.005273222,0.008243378,-0.417881857,-0.154554856,0.192579677
1340892,-0.704365,0.728756,0.110583,-0.422933,-0.170379,0.225809,0.010013045,0.011145129,0.019421152,-0.396329148,-0.247396592,0.201517154
1340902,-0.705587,0.711643,0.114737,-0.398009,-0.168546,0.303424,0.006763458,-0.004237781,0.00865735,-0.365135673,-0.327872953,0.195090514
1340912,-0.688965,0.684018,0.10423,-0.381392,-0.180155,0.390134,9.56E-17,-1.77E-17,-0.023569107,-0.354458336,-0.41282063,0.184549818
1340974,-0.502453,0.549318,0.059274,-0.295755,-0.414786,0.300998,0.026519314,0.01966321,-0.253921738,-0.466747759,-0.359306874,-0.056243586
1340983.875,-0.507831,0.544917,0.041927,-0.274665,-0.441671,0.219745,0.015131374,0.031332221,-0.254765763,-0.478775401,-0.281423352,-0.10186762
1340993.75,-0.494387,0.515092,0.034597,-0.252297,-0.47711,0.126365,0.001237666,0.030006852,-0.285833854,-0.496587631,-0.19186432,-0.154417126
1341003.625,-0.487542,0.515092,0.025802,-0.233763,-0.511327,0.056633,0.003321899,0.034408911,-0.291136328,-0.513460445,-0.124760734,-0.200252013
1341013.5,-0.476542,0.510936,0.013829,-0.217147,-0.5431,0.008123,0.005012597,0.041684927,-0.302449747,-0.527377977,-0.077668591,-0.240866087
1341023.375,-0.480453,0.522182,0.014562,-0.199253,-0.569985,-0.033716,0.008469912,0.03800969,-0.291335974,-0.5362442,-0.035855838,-0.27726872
1341033.25,-0.526898,0.562519,0.031421,-0.172411,-0.596258,-0.057364,0.00693257,0.020801532,-0.228925657,-0.538131207,-0.011370333,-0.31436492
1341043.125,-0.567965,0.592833,0.04999,-0.131509,-0.595647,-0.062215,-0.000364527,0.004921552,-0.17749781,-0.50855907,-0.005741988,-0.342484123
1341105,-0.507831,0.54345,0.050234,0.045518,-0.472833,0.165172,0.001690868,0.009119421,-0.25456881,-0.273319689,-0.218361863,-0.361302046
1341114.875,-0.516142,0.550051,0.061962,0.068525,-0.446559,0.203373,-0.001398629,0.008163829,-0.243211158,-0.235193041,-0.256961181,-0.352315736
1341124.75,-0.528364,0.560319,0.080531,0.085141,-0.421507,0.245213,-0.006607756,-0.016259455,-0.225853303,-0.201626604,-0.29155386,-0.345528024
1341134.625,-0.518098,0.556163,0.064405,0.10687,-0.404399,0.302817,-0.009104504,-0.007949786,-0.237278076,-0.168124318,-0.342994747,-0.34748626
1341144.5,-0.480942,0.538561,0.032398,0.111983,-0.401344,0.371337,-0.001705169,0.015335681,-0.277390356,-0.15577329,-0.406972767,-0.348735165
1341154.375,-0.44452,0.517537,0.009187,0.114539,-0.420896,0.417421,0.00474634,0.030304858,-0.318394494,-0.162307512,-0.450691597,-0.367486426
1341164.25,-0.422275,0.502625,-0.013291,0.090254,-0.445337,0.466536,0.005988591,0.045695261,-0.345018476,-0.19268498,-0.497940268,-0.372900329
1341174.125,-0.421053,0.497246,-0.023064,0.056382,-0.475888,0.521716,0.002823382,0.055043955,-0.350359058,-0.23484253,-0.555779521,-0.37120616
1341235,-0.38463,0.455443,-0.043343,-0.303424,-0.613978,0.698168,-0.002869434,0.069259456,-0.406331681,-0.585828618,-0.745009618,-0.24132792
1341245,-0.392697,0.465466,-0.011336,-0.332822,-0.582205,0.680584,-0.003547044,0.034579877,-0.391896648,-0.589018214,-0.723656126,-0.205686854
1341255,-0.411519,0.4794,-9.70E-05,-0.347521,-0.541267,0.661786,-0.010671179,0.020223391,-0.368613116,-0.575359516,-0.700807314,-0.171848934
1341265,-0.423742,0.493335,-0.011581,-0.34113,-0.472833,0.623585,-0.012856863,0.02833127,-0.350305561,-0.529292052,-0.657178814,-0.129479363
1341275,-0.426431,0.491868,-0.01549,-0.328348,-0.408676,0.589022,-0.017192255,0.027629644,-0.349647406,-0.480643588,-0.617956199,-0.094272353
1341285,-0.409808,0.476222,-0.023308,-0.306619,-0.331688,0.533843,-0.016123333,0.030267972,-0.372228432,-0.417804421,-0.558053704,-0.055100078
1341295,-0.390986,0.458865,-0.038212,-0.295755,-0.23698,0.476238,-0.013826232,0.040025385,-0.397427099,-0.352303947,-0.496263675,0.006120984
1341305,-0.403453,0.466688,-0.049696,-0.27083,-0.157548,0.424091,-0.019136859,0.051293384,-0.383522527,-0.285653592,-0.440191173,0.051547984
1341367,-0.424964,0.418528,-0.041144,-0.070796,0.385647,0.142737,-0.058662073,0.034206633,-0.405995299,0.201782262,-0.133184979,0.340081187
1341377,-0.439386,0.435152,-0.035769,-0.034368,0.466301,0.083313,-0.049031282,0.027107151,-0.383106267,0.28419144,-0.06907438,0.374196196
1341387,-0.48632,0.467422,-0.00254,-0.004331,0.542067,0.021464,-0.050855137,-0.007703432,-0.327429311,0.358824394,-0.001591256,0.406888948
1341397,-0.536431,0.48869,0.012119,0.033375,0.611723,-0.030684,-0.060893671,-0.026234536,-0.27727826,0.436604582,0.05620089,0.42717482
1341407,-0.545231,0.487223,0.001124,0.060856,0.66366,-0.071917,-0.056471163,-0.02013065,-0.271254418,0.496141525,0.100893194,0.439299731
1341417,-0.52812,0.474756,-0.014268,0.089615,0.716207,-0.092533,-0.041781544,-0.010072888,-0.291014521,0.558693472,0.124318241,0.449390977
1341427,-0.50172,0.458132,-0.02453,0.098562,0.74187,-0.122852,-0.023793168,-0.003842164,-0.320567346,0.587824479,0.155290143,0.453349238
1341437,-0.490964,0.458132,-0.025751,0.093449,0.749202,-0.144681,-0.016418172,-0.001696763,-0.328195521,0.587671276,0.176825249,0.462973268
1341502,-0.660854,0.555918,-0.003273,0.130516,0.903179,0.153651,-0.050096787,-0.042764857,-0.13892798,0.756663776,-0.112276865,0.520796696
1341512,-0.603898,0.520226,-0.039189,0.093449,0.848798,0.162747,-0.028392212,-0.00789912,-0.20250696,0.700804191,-0.126159907,0.498632641
1341522,-0.615143,0.53465,-0.042854,0.037849,0.799306,0.154258,-0.017618085,-0.002545902,-0.184052012,0.631882908,-0.12026748,0.50037774
1341532,-0.693365,0.585499,-0.024041,-0.016474,0.733316,0.140311,-0.022551077,-0.023626291,-0.092765014,0.550195443,-0.109508288,0.492954191
1341542,-0.77501,0.619968,-0.002785,-0.063127,0.688101,0.142737,0.014145598,-0.003040676,-0.007629488,0.504845092,-0.144916049,0.47113971
1341552,-0.789188,0.606767,-0.00083,-0.079743,0.661216,0.156077,0.007999429,-0.013353062,-0.00463962,0.479875361,-0.160946219,0.460153809
1341562,-0.766454,0.580609,-0.007183,-0.104029,0.643496,0.166385,-0.001913975,-0.021299269,-0.038671327,0.450571007,-0.176578767,0.467331584
1341572,-0.706321,0.535383,-0.021598,-0.124479,0.60989,0.165779,-0.001627856,-0.004660439,-0.11345253,0.411439013,-0.176175848,0.463274777
1341633,-0.747143,0.550296,0.038507,-0.182636,0.507239,-0.085863,-0.010354031,-0.058661244,-0.073186755,0.293741367,0.079825694,0.453170646
1341643,-0.707543,0.525604,0.018227,-0.168576,0.510294,-0.124671,-0.009084404,-0.030612821,-0.118983988,0.30222864,0.123698686,0.444653996
1341653,-0.661098,0.514603,0.008943,-0.162825,0.500518,-0.191371,0.009557067,-0.013704392,-0.162343959,0.295630755,0.195191444,0.433769369
1341663,-0.669165,0.538806,0.071979,-0.16602,0.490742,-0.258678,0.027256586,-0.069593046,-0.141112018,0.284169058,0.266930488,0.428136333
1341673,-0.767188,0.604078,0.158715,-0.15899,0.491353,-0.318101,0.002757922,0.008519112,-0.010758913,0.204928035,0.436451314,0.367979059
1341683,-0.867655,0.681085,0.220041,-0.116171,0.532902,-0.334473,0.017962504,-0.020970423,0.124436573,0.260706418,0.466715112,0.351513297
1341693,-0.932433,0.701131,0.247162,-0.052902,0.605613,-0.336292,0.005921966,-0.032777099,0.192055211,0.355117356,0.491145191,0.33959697
1341703,-0.928277,0.694041,0.245451,0.015481,0.680768,-0.32174,0.002765759,-0.03314104,0.184285149,0.457376019,0.497121364,0.332984814
1341765,-0.876699,0.75198,0.264265,0.147772,0.707042,-0.330229,0.074741132,-0.034529863,0.182003595,0.554484797,0.512526698,0.246290763
1341774.875,-0.9295,0.757358,0.262799,0.167583,0.709486,-0.272624,0.03763746,-0.029134056,0.22652327,0.57813276,0.45945174,0.245855449
1341784.75,-0.941477,0.736334,0.237389,0.182921,0.712541,-0.190765,0.017033516,-0.031063923,0.218057934,0.608164432,0.378845296,0.253334403
1341794.625,-0.905788,0.697708,0.194631,0.198259,0.706431,-0.10648,-0.002292839,-0.020514528,0.159613503,0.629849842,0.293312002,0.258740459
1341804.5,-0.837832,0.667884,0.156028,0.1842,0.675269,-0.027046,0.000395582,-0.006777115,0.082741958,0.61223933,0.205622708,0.271167205
1341814.375,-0.80801,0.667395,0.14088,0.156719,0.623333,0.036016,0.002115604,0.007981292,0.057390772,0.566281776,0.131762051,0.276343515
1341824.25,-0.808255,0.688419,0.168244,0.125404,0.564064,0.092408,0.009562876,-0.012849799,0.074823866,0.511338956,0.062315506,0.27763798
1341834.125,-0.829766,0.711643,0.170443,0.094727,0.518238,0.126971,0.012870944,-0.009716972,0.10622697,0.465720511,0.015908437,0.276616686
1341894,-0.816321,0.648082,0.178994,-0.06121,0.277497,0.323434,-0.026252061,-0.024190786,0.056955411,0.232387574,-0.238956912,0.272500295
1341904,-0.788699,0.654193,0.209047,-0.06824,0.232281,0.299786,-0.002767059,-0.041029879,0.044999586,0.188971588,-0.225855167,0.248519594
1341914,-0.774032,0.662016,0.22786,-0.066962,0.194398,0.25067,0.010796385,-0.04689867,0.042590453,0.150706661,-0.186776089,0.217972786
1341924,-0.772321,0.667639,0.228593,-0.054819,0.167514,0.21065,0.013912749,-0.035160215,0.045488649,0.130406064,-0.153639602,0.186624266
1341934,-0.791877,0.668617,0.230547,-0.045872,0.137574,0.158502,0.005342373,-0.025612461,0.061407206,0.103874149,-0.110554699,0.152123468
1341944,-0.814855,0.658838,0.242519,-0.042676,0.118632,0.125152,-0.006169915,-0.029307076,0.075162627,0.085949572,-0.082932685,0.131501545
1341954,-0.821944,0.637814,0.242275,-0.033729,0.110078,0.094227,-0.016090895,-0.025391739,0.067797807,0.079676857,-0.054943868,0.112988092
1341964,-0.800188,0.613612,0.231769,-0.035007,0.101524,0.086345,-0.021914706,-0.023114237,0.034177388,0.070821677,-0.050114866,0.107055415
1342025,-0.835877,0.645882,0.198052,-0.109141,-0.009682,0.131822,-0.016355916,0.016147884,0.074499996,-0.045781519,-0.127845017,0.104605176
1342034.875,-0.829766,0.631214,0.204893,-0.126397,-0.009071,0.18397,-0.00733313,0.00718452,0.062458695,-0.042062115,-0.176945255,0.129709679
1342044.75,-0.821944,0.623146,0.210024,-0.131509,-0.000516,0.233692,-0.025085035,0.002525248,0.052319971,-0.029179931,-0.221105077,0.14888892
1342054.625,-0.811921,0.629258,0.212467,-0.144291,-0.001127,0.267042,-0.000309788,0.002544667,0.048959959,-0.027342605,-0.252838588,0.165703419
1342064.5,-0.803366,0.632925,0.215888,-0.153238,0.001317,0.290084,-0.005682305,0.007726359,0.045230419,-0.027592082,-0.272657567,0.180357629
1342074.375,-0.806543,0.644904,0.232991,-0.151321,0.004372,0.28402,-0.005882407,0.005213325,0.058600871,-0.027027639,-0.264328231,0.181616664
1342084.25,-0.814366,0.662261,0.255713,-0.149404,0.001928,0.260978,-0.000257701,0.001322014,0.080355931,-0.033867145,-0.241579613,0.175861013
1342094.125,-0.817788,0.662505,0.257668,-0.146208,0.003761,0.222171,-0.00186023,-0.000358855,0.083549398,-0.039812089,-0.204517572,0.165343394
1342155,-0.837099,0.676684,0.296027,-0.111059,-0.071394,0.094834,0.006667288,-0.016981613,0.116214643,-0.100948703,-0.110123411,0.064084991
1342165,-0.855433,0.673262,0.300669,-0.095081,-0.079338,0.093621,0.006397996,-0.011528237,0.1292809,-0.095845694,-0.111836261,0.049051607
1342175,-0.868633,0.664705,0.290896,-0.088051,-0.087281,0.10878,0.004939373,-0.004334658,0.131783249,-0.092649363,-0.129103396,0.044186521
1342185,-0.877433,0.651015,0.279902,-0.095721,-0.097057,0.138492,-0.00398335,-0.005990519,0.127830916,-0.096743004,-0.160432414,0.051622059
1342195,-0.885499,0.644415,0.256446,-0.096999,-0.107444,0.176087,-0.014425428,0.004512757,0.124684518,-0.095305452,-0.199755321,0.054537449
1342205,-0.882077,0.639037,0.230547,-0.116171,-0.125775,0.229447,-0.018274146,0.017545275,0.113076035,-0.106823013,-0.256314044,0.069662992
1342215,-0.87181,0.626324,0.208069,-0.127675,-0.151438,0.257946,-0.022646333,0.025444183,0.092916683,-0.125208981,-0.292263218,0.068377151
1342225,-0.875233,0.62388,0.197808,-0.141096,-0.1826,0.293722,-0.029214956,0.034326597,0.091950198,-0.147449221,-0.336268195,0.068599437
1342286,-0.838077,0.579631,0.143567,-0.246545,-0.378736,0.205192,-0.048511582,0.064516314,0.025885427,-0.380956009,-0.317606944,0.01809697
1342296,-0.844188,0.581343,0.130862,-0.252936,-0.422729,0.134248,-0.049023872,0.072261396,0.02961783,-0.43610427,-0.265034125,-0.016399125
1342306,-0.850544,0.577187,0.120356,-0.264439,-0.463668,0.064516,-0.05265516,0.076608561,0.030734718,-0.492145132,-0.212129249,-0.04327429
1342316,-0.848344,0.569364,0.114248,-0.274665,-0.496663,-0.01128,0.010304581,-0.001831,0.028010688,-0.559346455,-0.086132172,-0.04421571
1342326,-0.841744,0.562519,0.111072,-0.27786,-0.539434,-0.081619,-0.000526126,-0.004919465,0.018466052,-0.606861257,-0.023476377,-0.077621879
1342336,-0.829032,0.555429,0.104963,-0.295116,-0.579761,-0.170755,-0.004458664,-0.003867446,0.00338319,-0.662628469,0.061306886,-0.097665338
1342346,-0.817299,0.552007,0.098855,-0.303424,-0.622532,-0.270199,-0.005073249,-0.002905215,-0.008825184,-0.715373648,0.157540755,-0.126653733
1342356,-0.810455,0.555429,0.091525,-0.323874,-0.652472,-0.364185,7.79E-17,-8.34E-17,-0.01322976,-0.76215017,0.253253702,-0.135035082
1342418,-0.829521,0.611412,0.06807,-0.309175,-0.680579,-0.719516,0.02704484,0.030791055,0.03193204,-0.821917882,0.601250254,-0.198568269
1342428,-0.83001,0.619479,0.067826,-0.290003,-0.66897,-0.740132,0.029013177,0.030684728,0.037057318,-0.802085403,0.625415675,-0.211972212
1342438,-0.836366,0.633658,0.066604,-0.279777,-0.642085,-0.760749,0.032664915,0.031931202,0.050418984,-0.775023054,0.652030425,-0.208525654
1342448,-0.84761,0.653949,0.061718,-0.262522,-0.617644,-0.755898,0.038841439,0.036639528,0.071004204,-0.742794735,0.653174825,-0.208332251
1342458,-0.857877,0.672528,0.051212,-0.240154,-0.584649,-0.743164,0.041964659,0.04644898,0.089472802,-0.699472691,0.647690385,-0.207403588
1342468,-0.861055,0.691352,0.050234,-0.204365,-0.539434,-0.714059,0.050491319,0.045857759,0.103292549,-0.63653641,0.627844975,-0.208005856
1342478,-0.874744,0.711643,0.044859,-0.162186,-0.491774,-0.680102,0.051965878,0.049402399,0.126269997,-0.567237755,0.603258921,-0.21214311
1342488,-0.88281,0.723133,0.048524,-0.140457,-0.437394,-0.624316,0.056747145,0.04733011,0.139810963,-0.504528677,0.555803771,-0.19324888
1342550,-0.907255,0.78865,0.075889,0.1139,-0.071394,-0.153776,0.080494223,0.021806134,0.201617564,-0.00486475,0.143914383,-0.144852877
1342560,-0.919722,0.794517,0.071735,0.156719,-0.012737,-0.053119,0.058840996,0.017819206,0.215940765,0.080884733,0.053476918,-0.134694408
1342570,-0.925344,0.795495,0.070025,0.196981,0.040422,0.053601,0.034784289,0.015233052,0.221693628,0.161220065,-0.04449594,-0.123841518
1342580,-0.931455,0.794272,0.085173,0.218071,0.088081,0.156683,0.012179286,0.002809474,0.227018598,0.223936324,-0.140730504,-0.099550158
1342590,-0.9493,0.803562,0.096901,0.242356,0.125353,0.245213,0.00700684,0.002197378,0.247484772,0.277352855,-0.224262595,-0.085795705
1342600,-0.978633,0.812852,0.104719,0.257694,0.168736,0.337987,0.009176332,-0.001899764,0.276451792,0.329209966,-0.310613326,-0.065218153
1342610,-1.0087,0.826053,0.107162,0.281341,0.209674,0.41924,0.011822484,-0.015331894,0.30803215,0.383650266,-0.385104883,-0.058179243
1342620,-1.025811,0.833876,0.103253,0.286453,0.233503,0.496855,0.00664416,-0.010700639,0.325948689,0.413565147,-0.458973072,-0.041850352
1342680,-1.104034,0.840965,0.17533,0.194425,0.112522,0.542332,-0.030043089,-0.069536927,0.396823483,0.267133514,-0.52132273,-0.038060172
1342690,-1.090589,0.831676,0.16971,0.161831,0.050198,0.462292,-0.026650288,-0.051520594,0.380762909,0.189637185,-0.451166579,-0.053939416
1342700,-1.078367,0.819452,0.164579,0.121569,-0.015181,0.361029,-0.020980667,-0.034422253,0.363758826,0.102392657,-0.360662217,-0.069209339
1342710,-1.066633,0.814074,0.148942,0.083863,-0.090336,0.231266,-0.001227831,-0.022778849,0.349846573,0.005290589,-0.242457716,-0.099316786
1342720,-1.055389,0.811629,0.124998,0.041683,-0.158159,0.126365,-0.006305812,-0.011392923,0.337177069,-0.084365543,-0.146645998,-0.118731888
1342730,-1.049033,0.807474,0.121822,-0.002414,-0.252867,-0.03129,-0.011633163,0.009186989,0.329325154,-0.201189889,-0.004778754,-0.156289486
1342740,-1.0395,0.810896,0.11718,-0.043954,-0.345741,-0.199254,-0.002244734,0.004819697,0.323561656,-0.3161157,0.151044991,-0.196028633
1342750,-1.018233,0.800873,0.118646,-0.095081,-0.431895,-0.372068,0.003295486,0.001783033,0.300868494,-0.43208596,0.311132071,-0.224737273
1342811,-0.857633,0.729,0.117424,-0.105946,-0.374459,-0.997232,0.040450157,-0.001859892,0.13098368,-0.453117241,0.937914117,-0.246814979
1342821,-0.848833,0.725822,0.115714,-0.072713,-0.282195,-1.011784,0.036819214,-0.001440146,0.122215237,-0.359091748,0.965296359,-0.2188244
1342831,-0.853966,0.730711,0.106185,-0.039481,-0.211928,-1.013603,0.03048778,0.005490374,0.128499934,-0.281399055,0.977101997,-0.19987378
1342841,-0.851033,0.735356,0.102032,-0.008166,-0.130663,-0.988742,0.030619798,0.004190924,0.128920284,-0.194734477,0.963881919,-0.166614453
1342851,-0.847121,0.744401,0.092991,0.023789,-0.047565,-0.966913,0.034527285,0.006746432,0.130998018,-0.107140748,0.95346643,-0.131040918
1342861,-0.852499,0.755891,0.085906,0.055104,0.022091,-0.92568,0.031556128,0.010683752,0.142101422,-0.028688755,0.921290669,-0.103963374
1342871,-0.84761,0.756869,0.091037,0.08578,0.073417,-0.871107,0.027054272,0.004672232,0.139661076,0.036100086,0.873121122,-0.089061555
1342881,-0.845166,0.75418,0.096656,0.10687,0.12963,-0.80562,0.027101228,-0.001241171,0.136529544,0.097873513,0.814646304,-0.063410513
1342942,-0.838321,0.784249,0.060985,0.078111,0.161403,-0.267773,0.039580257,0.027278019,0.148580461,0.149171825,0.284374645,0.027082541
1342952,-0.836366,0.780827,0.065382,0.052548,0.125353,-0.196828,0.026487006,0.012111427,0.145698672,0.111095476,0.209545423,0.031055423
1342962,-0.823899,0.773493,0.058297,0.035292,0.091136,-0.100416,0.016696267,0.007840297,0.131441244,0.082137697,0.109636842,0.029458962
1342972,-0.816077,0.76347,0.054143,0.018676,0.055086,-0.00461,0.001492396,0.000745404,0.11883725,0.052340774,0.010237385,0.023667527
1342982,-0.807766,0.755402,0.052677,-0.006248,0.028813,0.096047,-0.001563152,-0.01089583,0.107145788,0.024705996,-0.093301837,0.027904009
1342992,-0.796766,0.746602,0.038262,-0.021586,-0.003571,0.168811,-0.020267644,0.007637882,0.092357758,-0.003421563,-0.168969347,0.020335044
1343002,-0.785521,0.749046,0.044126,-0.028616,-0.036566,0.239755,-0.011584505,0.015149537,0.086138364,-0.025881253,-0.242691608,0.008327784
1343012,-0.779654,0.749535,0.069536,-0.038842,-0.061007,0.301605,-0.005012513,-0.009972567,0.083685265,-0.045218624,-0.306834036,0.002069108
1343073,-0.72001,0.661527,0.053655,0.046796,-0.083004,0.334955,-0.016196054,-0.00608438,-0.020912721,0.000544647,-0.340237819,-0.074244943
1343083,-0.688476,0.646126,0.045348,0.044879,-0.105,0.269467,-0.003327758,-0.008038195,-0.054770523,-0.022680446,-0.27623896,-0.093963947
1343093,-0.677232,0.633903,0.027267,0.042322,-0.14105,0.18397,-0.002093361,0.000520275,-0.07198328,-0.058293246,-0.193094859,-0.121850269
1343103,-0.671854,0.616301,0.001613,0.028262,-0.197875,0.110599,-0.007674624,0.017145267,-0.088482331,-0.116198239,-0.123491122,-0.153079415
1343113,-0.665987,0.599433,-0.010603,0.01612,-0.255922,0.011762,-0.010023191,0.021499458,-0.104227519,-0.176093837,-0.02788105,-0.184683179
1343123,-0.664032,0.593077,-0.010603,0.004616,-0.306025,-0.072523,-0.004639016,0.015503052,-0.109758806,-0.229087611,0.054230602,-0.208590752
1343133,-0.662565,0.59161,-0.003273,-0.012639,-0.361628,-0.141649,0.008146732,0.004907943,-0.111791113,-0.289891623,0.120640234,-0.228927445
1343143,-0.669898,0.590877,-0.00083,-0.013278,-0.403177,-0.199254,0.002955039,0.002086119,-0.106755037,-0.325666987,0.175760406,-0.255889524
1343204,-0.677721,0.575964,-0.002296,0.001421,-0.646973,-0.233817,0.001639587,0.004820506,-0.110607157,-0.507744485,0.19845216,-0.419593553
1343214,-0.677965,0.570831,-0.002785,0.007172,-0.654916,-0.18652,-0.00642682,-0.000233508,-0.113743282,-0.504241067,0.155893513,-0.430342043
1343224,-0.670632,0.575231,-0.007427,0.034653,-0.653083,-0.145893,-0.002569117,0.018306534,-0.116624987,-0.479869096,0.112027177,-0.454068899
1343234,-0.686276,0.599433,0.020671,0.055743,-0.646973,-0.103448,0.003859433,0.004889573,-0.088581788,-0.456961194,0.065688022,-0.468246073
1343244,-0.696299,0.609945,0.037774,0.076194,-0.633531,-0.070704,-0.007029572,-0.013321544,-0.073681914,-0.424726571,0.037009999,-0.480003863
1343254,-0.681876,0.596255,0.023603,0.104953,-0.620088,-0.024014,-0.002933227,-0.005629101,-0.093914068,-0.396237737,-0.003315053,-0.488963801
1343264,-0.662321,0.581832,0.012852,0.133073,-0.612756,0.013581,-0.000239216,-0.002120443,-0.118320805,-0.371284489,-0.034290092,-0.504316171
1343274,-0.639587,0.560319,-0.000586,0.161192,-0.605424,0.046931,-0.001896375,0.010880541,-0.149760461,-0.345917186,-0.066867743,-0.520186125
1343336,-0.61172,0.557874,0.057564,0.211041,-0.702576,-0.001578,0.014969083,-0.03443741,-0.170947309,-0.386664557,-0.028098773,-0.622779904
1343346,-0.623943,0.556896,0.059274,0.220627,-0.72335,-0.004004,0.003724508,-0.023379338,-0.161912317,-0.394407739,-0.033804352,-0.644381354
1343356,-0.607809,0.543206,0.051212,0.216793,-0.75329,-0.005823,-0.009034309,-0.014756938,-0.183404738,-0.409088311,-0.031706275,-0.667922452
1343366,-0.551098,0.511425,0.029466,0.206568,-0.798505,-0.016131,-0.004282949,0.003096172,-0.247600604,-0.440681466,-0.018764502,-0.69712877
1343376,-0.477764,0.485268,0.012852,0.192508,-0.862662,-0.054939,0.019189221,0.015086655,-0.319329146,-0.48908736,0.023493562,-0.737905792
1343386,-0.389764,0.457887,-0.017689,0.174613,-0.919487,-0.116788,0.055102102,0.040202875,-0.402307045,-0.534807152,0.090511284,-0.771605143
1343396,-0.311052,0.439064,-0.062889,0.13499,-1.003807,-0.191977,0.093037108,0.080699806,-0.472442224,-0.613966602,0.171655943,-0.81011432
1343406,-0.239674,0.419506,-0.087811,0.090254,-1.08935,-0.304155,0.129838918,0.102745318,-0.537696056,-0.704545571,0.284045509,-0.842777051
1343468,-0.356519,0.440775,-0.030394,-0.140457,-1.241493,-0.450289,0.05671922,0.051297033,-0.437448902,-0.962226533,0.440287696,-0.802533529
1343477.875,-0.394164,0.473778,-0.004251,-0.163464,-1.165727,-0.417546,0.046491331,0.028664812,-0.386106029,-0.915939239,0.413340771,-0.741747462
1343487.75,-0.411275,0.506781,-0.001319,-0.165381,-1.061243,-0.379344,0.050968615,0.027353991,-0.349900156,-0.837045103,0.380636642,-0.672280219
1343497.625,-0.387075,0.518026,-0.01549,-0.143652,-0.96959,-0.365398,0.071116426,0.039354764,-0.358274522,-0.751030085,0.370705412,-0.62672775
1343507.5,-0.358475,0.519248,-0.032593,-0.107224,-0.838221,-0.353877,0.087966753,0.053090367,-0.376599344,-0.628385651,0.361546576,-0.560139187
1343517.375,-0.307141,0.507758,-0.047741,-0.058653,-0.69952,-0.357515,0.113192753,0.063091206,-0.418932118,-0.492368634,0.365356039,-0.494644795
1343527.25,-0.256785,0.484779,-0.05165,-0.008166,-0.573651,-0.361153,0.130177759,0.061730582,-0.468154135,-0.364836083,0.367795081,-0.437258566
1343537.125,-0.234785,0.471822,-0.051406,0.023789,-0.446559,-0.350845,0.138105787,0.060272803,-0.492381488,-0.257602873,0.353999223,-0.362489146
1343600,-0.358475,0.557141,-0.075838,0.336941,0.35754,-0.027652,0.094523004,0.082261644,-0.345049433,0.489301378,0.002167932,0.052040213
1343610,-0.327675,0.528783,-0.068509,0.356753,0.443693,0.151832,0.09175365,0.065125411,-0.38435741,0.549654912,-0.180650973,0.111507136
1343620,-0.329875,0.534894,-0.070219,0.370174,0.532902,0.012368,0.086927053,0.057374897,-0.376292037,0.622589216,-0.045970209,0.177301177
1343630,-0.391964,0.579876,-0.063133,0.368256,0.622722,0.028134,0.061660914,0.038025591,-0.300979461,0.675473201,-0.067781247,0.251651248
1343640,-0.483386,0.630969,-0.058736,0.380399,0.720484,0.073005,0.01545209,0.017960101,-0.203336652,0.741808184,-0.121092235,0.322781058
1343650,-0.517853,0.667395,-0.055071,0.391264,0.809693,0.131216,-0.003596612,0.000879452,-0.153473614,0.797371429,-0.186631803,0.394049852
1343660,-0.441097,0.662505,-0.063378,0.408519,0.904401,0.1773,0.042868978,-0.002593691,-0.202722299,0.861323782,-0.242491464,0.464309664
1343670,-0.453564,0.637081,-0.069486,0.405963,0.983833,0.208224,0.017901976,0.005319477,-0.21509744,0.905657053,-0.279991104,0.526764509
1343731,-0.638365,0.737312,0.005767,0.179087,1.21602,0.27068,-0.069669646,-0.081099772,-0.030597563,0.8654581,-0.357817925,0.840828797
1343741,-0.559898,0.696242,-0.017444,0.129238,1.20441,0.268255,-0.030983214,-0.049851342,-0.108317394,0.821243316,-0.345937534,0.863222621
1343751,-0.551831,0.705287,0.005767,0.074916,1.176915,0.248851,-0.017164111,-0.070615399,-0.107419851,0.766012362,-0.316901738,0.874909421
1343761,-0.63372,0.75198,0.049013,0.026345,1.157362,0.227628,0.014311832,-0.00699413,-0.015508514,0.787012028,-0.151181135,0.865882034
1343771,-0.697276,0.78156,0.050723,-0.03309,1.123145,0.221564,0.00105746,-0.013799471,0.048528079,0.733494504,-0.146755167,0.867230638
1343781,-0.742499,0.785716,0.04437,-0.099555,1.085873,0.21065,-0.014801095,-0.012005734,0.081785508,0.672285461,-0.136829181,0.873335461
1343791,-0.738099,0.765914,0.041194,-0.165381,1.037603,0.213075,-0.009930969,-0.017758277,0.064282554,0.605179788,-0.14568287,0.872872122
1343801,-0.703876,0.732911,0.026779,-0.220342,0.967947,0.20398,7.83E-17,2.38E-16,0.016522047,0.515978955,-0.168500849,0.855834689
1343861,-0.60732,0.680596,-0.023064,-0.631914,0.373426,0.051175,0.023735171,0.042115927,-0.088823104,-0.202283823,-0.04348194,0.706096125
1343871,-0.611231,0.693797,-0.014512,-0.680485,0.284218,-0.016131,0.016497508,0.039911895,-0.076255943,-0.310814773,0.022268761,0.668579236
1343881,-0.629076,0.719955,0.026534,-0.702853,0.227393,-0.083438,0.017528322,0.013478849,-0.043816468,-0.372056343,0.093355917,0.636812819
1343891,-0.654009,0.749291,0.065382,-0.7118,0.198675,-0.154383,0.017361784,0.000999349,-0.003437332,-0.406442933,0.169244874,0.61329065
1343901,-0.671609,0.755158,0.063917,-0.693267,0.192565,-0.210775,0.012495669,-0.004981297,0.01253478,-0.397339607,0.221046261,0.596142852
1343911,-0.687743,0.747579,0.046569,-0.67026,0.193176,-0.261709,0.014699341,-0.004443908,0.016758402,-0.367360286,0.268552176,0.589900995
1343921,-0.686032,0.714577,0.029466,-0.630636,0.202342,-0.304155,0.01225655,-0.006225776,-0.009071417,-0.3184518,0.306785936,0.579331644
1343931,-0.651321,0.671795,0.02287,-0.599321,0.221894,-0.327803,0.006819884,-0.001078999,-0.064049719,-0.283246298,0.331471326,0.57076765
1343993,-0.656209,0.765181,0.036552,-0.284251,0.334321,-0.51699,0.058563502,-0.010345875,0.006931747,0.006917821,0.527924013,0.425553994
1344002.875,-0.683587,0.781071,0.030444,-0.233763,0.373426,-0.494554,0.042614332,0.002536554,0.037529525,0.066428808,0.510553726,0.416650792
1344012.75,-0.715365,0.801362,0.054143,-0.164103,0.402144,-0.456959,0.035543111,-0.011337206,0.074926862,0.136833987,0.478894111,0.386520388
1344022.625,-0.738832,0.820186,0.148698,-0.083578,0.452859,-0.392078,0.034182798,-0.096740778,0.109126527,0.230868686,0.421134017,0.367610532
1344032.5,-0.73541,0.817252,0.113515,-0.010722,0.499907,-0.305974,0.028256558,-0.055257309,0.103522792,0.31753425,0.341866448,0.35488222
1344042.375,-0.70021,0.80014,0.117913,0.049352,0.536568,-0.207136,0.03056724,-0.058996271,0.067710927,0.386755228,0.248031837,0.349495011
1344052.25,-0.702654,0.80674,0.077599,0.093449,0.567119,-0.117394,0.019031543,-0.031459978,0.072017605,0.440311711,0.158260483,0.353860487
1344062.125,-0.718543,0.87788,0.024336,0.123486,0.583006,-0.050694,0.051489214,0.026412977,0.13323466,0.477105207,0.093299751,0.348396969
1344123,-0.714632,0.831431,0.032887,0.147132,0.548178,0.398017,0.003744452,0.003636435,0.096827568,0.492647155,-0.358088476,0.331113125
1344133,-0.738343,0.840721,0.043149,0.145215,0.534735,0.436824,0.0039763,-0.006270943,0.119718217,0.489341754,-0.396069073,0.31861899
1344143,-0.780143,0.851233,0.047302,0.139463,0.523126,0.4726,-0.012517871,-0.006763125,0.155532675,0.483085897,-0.430059224,0.313270777
1344153,-0.793832,0.842921,0.061718,0.141381,0.51946,0.501705,-0.020173735,-0.017840222,0.15921047,0.487378759,-0.45658555,0.309074048
1344163,-0.780877,0.817497,0.065382,0.138185,0.52557,0.519896,-0.021787312,-0.018054094,0.13205318,0.493405379,-0.471345358,0.31622058
1344173,-0.751299,0.795495,0.061229,0.133073,0.518849,0.522928,-0.018627011,-0.007734846,0.095721077,0.485722047,-0.471488855,0.319591541
1344183,-0.700699,0.762981,0.049257,0.136268,0.499296,0.498067,-0.015380185,-0.012850881,0.03689134,0.471026228,-0.451498858,0.300365233
1344193,-0.665987,0.743179,0.038995,0.116456,0.460802,0.467143,2.92E-17,-1.36E-16,-0.001313703,0.409973595,-0.442355953,0.283488849
1344253,-0.715365,0.74489,0.101054,0.041044,0.27933,0.202161,-0.027470553,-0.053595742,0.035950275,0.225057053,-0.185354114,0.188605685
1344263,-0.706076,0.74049,0.079798,0.038488,0.248168,0.185182,-0.010325509,-0.011926825,0.026151847,0.209887522,-0.159159021,0.167262337
1344273,-0.700699,0.739512,0.076377,0.035292,0.221283,0.151226,0.003965266,0.009682173,0.021558155,0.188051328,-0.126043802,0.147751997
1344283,-0.70021,0.732178,0.08444,0.016759,0.185233,0.140311,-0.004752108,0.009861726,0.016557399,0.149483369,-0.11667338,0.135356381
1344293,-0.699965,0.7334,0.088838,0.006533,0.163847,0.132429,0.003466573,-0.011785711,0.017628533,0.128120333,-0.113058844,0.123405176
1344303,-0.715365,0.74489,0.080775,-0.011361,0.132075,0.131822,0.011082329,-0.010057624,0.035813121,0.094724285,-0.116900409,0.110957297
1344313,-0.736388,0.753691,0.073445,-0.030534,0.101524,0.136673,0.014654586,0.004064929,0.056163007,0.061646791,-0.124647933,0.102866528
1344323,-0.769632,0.758825,0.079798,-0.034368,0.08747,0.141524,-0.004690213,-0.002036022,0.083739071,0.049500049,-0.131099261,0.096041303
1344383,-0.768899,0.735845,0.17704,0.034014,0.127797,0.172449,-0.010148009,-0.090557682,0.07504094,0.129089536,-0.155623172,0.079655526
1344393,-0.778432,0.739512,0.147965,0.032736,0.121076,0.15729,-0.01064698,-0.051198563,0.082586425,0.122655085,-0.140600308,0.075222809
1344403,-0.798477,0.736823,0.137459,0.025067,0.115577,0.132429,-0.018598182,-0.031816893,0.094536625,0.111846797,-0.115918247,0.074679927
1344413,-0.799455,0.722399,0.135504,0.03018,0.120465,0.10878,-0.020257873,-0.022669299,0.085553162,0.117416105,-0.091177024,0.071804913
1344423,-0.785766,0.701375,0.136237,0.026984,0.114966,0.088164,-0.01630979,-0.017487279,0.061764476,0.110003278,-0.07084757,0.067809357
1344433,-0.763521,0.67864,0.133305,0.02315,0.107634,0.071186,-0.015237511,-0.007530837,0.030047521,0.100666576,-0.054324712,0.06405867
1344443,-0.746165,0.678396,0.137215,0.011007,0.097247,0.052995,-0.014450776,0.003638708,0.017639048,0.084169318,-0.032391327,0.065214499
1344453,-0.732476,0.687441,0.144056,0.002699,0.073417,0.0154,1.02E-16,-3.35E-17,0.014814441,0.056012429,-1.49E-05,0.049971072
1344513,-0.783321,0.769581,0.181926,-0.135983,-0.075671,-0.175605,0.014861422,-0.012687858,0.112906973,-0.17386514,0.156437405,0.018784139
1344522.875,-0.785032,0.773737,0.172153,-0.170494,-0.102556,-0.164084,0.000816104,-0.006542801,0.11558835,-0.215515455,0.139507305,0.024500948
1344532.75,-0.782099,0.777404,0.161892,-0.213312,-0.136773,-0.125883,0.000684255,-0.004969232,0.114549094,-0.26410245,0.094693581,0.036584339
1344542.625,-0.778432,0.780827,0.145277,-0.245906,-0.168546,-0.090108,0.001301163,0.003366223,0.11208793,-0.304051695,0.052608541,0.042212256
1344552.5,-0.769143,0.776915,0.127442,-0.295116,-0.212539,-0.052513,-0.000948075,0.012327751,0.100575514,-0.364023517,0.006001839,0.049746878
1344562.375,-0.757654,0.77716,0.112049,-0.34816,-0.258977,-0.008248,0.002691392,0.020553739,0.090936537,-0.427369875,-0.047905929,0.058416723
1344572.25,-0.747388,0.769337,0.096412,-0.408873,-0.301748,0.031772,0.000354496,0.028302638,0.076551137,-0.494280845,-0.097367497,0.073786604
1344582.125,-0.738343,0.761758,0.084929,-0.46,-0.34513,0.067547,1.67E-05,0.038415256,0.063561394,-0.55527174,-0.141830742,0.082671937
1344644,-0.73981,0.719955,0.054876,-0.725221,-0.51316,0.307062,-0.031601162,0.058299679,0.031633621,-0.823809888,-0.416790685,0.176602801
1344654,-0.743232,0.717021,0.056098,-0.738642,-0.511327,0.320402,-0.03295637,0.054818591,0.032263874,-0.828770441,-0.431901606,0.190539514
1344664,-0.748121,0.711154,0.050967,-0.749506,-0.50094,0.317977,-0.037182097,0.057406389,0.031186053,-0.828038341,-0.429955764,0.208086632
1344674,-0.75741,0.707731,0.0517,-0.755258,-0.486886,0.308275,-0.04052889,0.05496325,0.035645893,-0.821809117,-0.420052523,0.225148292
1344684,-0.768654,0.707243,0.058297,-0.745033,-0.459391,0.296147,-0.040675524,0.047674459,0.044266643,-0.794882456,-0.404656682,0.241313402
1344694,-0.77941,0.699664,0.060496,-0.726499,-0.422118,0.276137,-0.045497414,0.042918385,0.04726187,-0.756344905,-0.379429373,0.257316501
1344704,-0.787477,0.694041,0.058297,-0.693906,-0.374459,0.254308,-0.048094726,0.041810114,0.049357083,-0.701094011,-0.349999569,0.269007673
1344714,-0.773788,0.681818,0.056831,-0.652365,-0.325578,0.229447,-0.047444985,0.041497083,0.030960902,-0.642139749,-0.314554708,0.270072087
1344775,-0.752032,0.650038,0.011875,-0.297033,-0.003571,0.046325,-0.054698594,0.072509133,-0.010054024,-0.198652224,-0.060758298,0.217331737
1344785,-0.76841,0.653949,0.010653,-0.251019,0.027591,0.039655,0.006016577,-0.009576357,0.009003867,-0.139872879,-0.041467573,0.209905547
1344795,-0.781854,0.65786,0.001369,-0.201809,0.066696,0.049963,0.00433265,-0.010763144,0.021735149,-0.077888888,-0.052045954,0.197220866
1344805,-0.798477,0.667639,-0.005961,-0.154516,0.100302,0.050569,0.014808933,-0.009735107,0.040686701,-0.019314573,-0.053431685,0.182386709
1344815,-0.82121,0.675706,-0.012802,-0.109141,0.116188,0.066941,0.004585386,0.00825095,0.063503291,0.021490806,-0.067486359,0.157722045
1344825,-0.842721,0.68573,-0.007183,-0.086134,0.132075,0.080281,0.013528853,0.007135906,0.08638021,0.050561187,-0.07992076,0.149546478
1344835,-0.858855,0.689885,-0.002052,-0.06121,0.128408,0.091802,-0.008731402,0.008445706,0.101557927,0.061547962,-0.090520356,0.129154169
1344845,-0.861299,0.689885,0.00259,-0.038203,0.119243,0.110599,-0.010237076,0.003801811,0.103478472,0.06915877,-0.109391099,0.105646358
1344906,-1.003811,0.798184,0.134038,-0.059293,-0.114166,0.180331,-0.016606858,-0.109802461,0.284666509,-0.124451517,-0.181809141,-0.022936024
1344916,-0.989878,0.796228,0.143323,-0.08933,-0.189932,0.156077,-0.010166276,-0.101633154,0.274341522,-0.202391388,-0.159161277,-0.046037565
1344926,-0.988411,0.798917,0.144056,-0.114254,-0.256533,0.120908,-0.007727465,-0.084054113,0.276264863,-0.270045655,-0.126017592,-0.068387221
1344936,-0.997211,0.809429,0.137703,-0.130231,-0.298082,0.087557,-0.005358135,-0.058470699,0.29039516,-0.312617149,-0.094505856,-0.082573493
1344946,-1.009189,0.821164,0.122799,-0.115532,-0.311524,0.068154,0.001390322,-0.024472911,0.306618342,-0.314312575,-0.077420863,-0.101259213
1344956,-1.027033,0.828742,0.103742,-0.095721,-0.304192,0.039655,0.001472798,-0.015061958,0.323685558,-0.296800843,-0.048388938,-0.113294185
1344966,-1.057589,0.844632,0.076133,-0.053541,-0.285251,0.033591,-0.003171159,0.002494013,0.355609703,-0.255896192,-0.042008225,-0.134594113
1344976,-1.070789,0.854655,0.060252,-0.020947,-0.26692,0.03541,-0.003650996,0.019308302,0.371228797,-0.221194225,-0.044559906,-0.148413143
1345038,-1.034856,0.880324,0.148698,0.228936,-0.12883,-0.072523,0.018217994,-0.070694435,0.364799906,0.046814302,0.057532004,-0.262234506
1345047.875,-1.018967,0.869568,0.078332,0.271754,-0.097668,-0.084044,0.006055983,-0.014119176,0.341768285,0.101224512,0.070493432,-0.274293534
1345057.75,-1.008211,0.863945,0.060252,0.31713,-0.064062,-0.093746,-0.000299965,-0.012379939,0.329047529,0.158425851,0.082220327,-0.285665463
1345067.625,-0.997944,0.857345,0.049746,0.364422,-0.029234,-0.099203,-0.006283349,-0.019055252,0.316436386,0.217695743,0.089860514,-0.2967034
1345077.5,-0.984744,0.850255,0.039728,0.406602,0.006205,-0.097991,0.016496114,-0.007015781,0.30150347,0.267774712,0.086410689,-0.309509
1345087.375,-0.987433,0.842188,0.034109,0.444947,0.032479,-0.09314,-0.009175394,0.000246585,0.298223298,0.317140842,0.079202482,-0.317579016
1345097.25,-0.988166,0.839743,0.034842,0.476262,0.06303,-0.07798,0.002333498,-0.016813902,0.29713768,0.357216187,0.066089856,-0.323894861
1345107.125,-0.996722,0.840476,0.020915,0.51269,0.094191,-0.064034,-0.002342565,-0.002690761,0.303947607,0.404233763,0.051061422,-0.331377624
1345168,-0.926322,0.766892,0.011875,0.586824,0.209674,0.00206,0.005781029,0.000859007,0.202623235,0.533921264,-0.01806089,-0.320829745
1345178,-0.924611,0.761758,0.018716,0.570208,0.20723,0.012974,-0.002366456,0.001078842,0.198133664,0.522463665,-0.031966326,-0.307017317
1345188,-0.924855,0.760292,0.017006,0.563817,0.20723,0.020251,0.013908913,-0.007857948,0.197261331,0.513609948,-0.037841385,-0.309865836
