time,aX,aY,aZ,gX,gY,gZ,aX_T,aY_T,aZ_T,gX_T,gY_T,gZ_T
2701156,0.993065,-0.213905,-0.008404,-0.036285,-0.001738,-0.019769,-0.00444346,0.011259333,0.015803895,-0.009955971,-0.020068773,-0.034764324
2701166,0.990376,-0.212682,-0.00987,-0.032451,-0.005404,-0.024014,0.000396737,-0.011401043,0.012939056,-0.013207384,-0.023389533,-0.030617602
2701176,0.990376,-0.212927,-0.007427,-0.039481,-0.003571,-0.020376,0.008072637,0.009757322,0.012954745,-0.012792366,-0.02059695,-0.037400586
2701186,0.993798,-0.214638,-0.008649,-0.032451,-0.002349,-0.019163,-0.011542411,-0.00798737,0.01665221,-0.009556059,-0.018804815,-0.031318787
2701196,0.991354,-0.213171,-0.007916,-0.031812,-0.001738,-0.019163,-0.015547221,0.00402542,0.013917833,-0.008621705,-0.019204037,-0.030644995
2701206,0.991109,-0.211949,-0.00816,-0.032451,-0.00296,-0.019163,-0.00831112,0.01010055,0.013466782,-0.010156219,-0.019339984,-0.030852323
2701216,0.99062,-0.210971,-0.009137,-0.029255,0.000706,-0.022801,0.013509728,-0.006272174,0.012767683,-0.006762711,-0.022631181,-0.028606546
2701226,0.993798,-0.215372,-0.007671,-0.03309,-0.002349,-0.025833,-1.66E-16,-7.63E-18,0.016896459,-0.010205513,-0.025733017,-0.031645997
2701289,0.990131,-0.213416,-0.007671,-0.026699,-0.00846,-0.028865,-0.008390489,0.00940149,0.012820735,-0.014707532,-0.028765779,-0.023954434
2701298.875,0.994531,-0.213416,-0.009626,-0.031812,-0.004182,-0.029471,0.012599383,-0.007033723,0.017114911,-0.012444457,-0.02904156,-0.029995927
2701308.75,0.992087,-0.215372,-0.008404,-0.03309,-0.000516,-0.028865,-0.009839309,0.00934439,0.015139503,-0.008326323,-0.02911451,-0.031802834
2701318.625,0.989642,-0.213416,-0.009626,-0.025421,-0.004793,-0.027652,-0.016297844,0.000801385,0.012306315,-0.010889753,-0.027423274,-0.023732057
2701328.5,0.989887,-0.212193,-0.009626,-0.031812,-0.001127,-0.031897,0.006632917,-0.010305392,0.01234609,-0.009399489,-0.031497828,-0.030825777
2701338.375,0.991598,-0.214394,-0.007183,-0.03309,-0.00296,-0.026439,-0.011300239,0.008481782,0.01443745,-0.010409822,-0.026585321,-0.031425893
2701348.25,0.993554,-0.213416,-0.00816,-0.029895,-0.007237,-0.025833,0.014125257,0.004769211,0.016139881,-0.014704162,-0.025662397,-0.027178265
2701358.125,0.991109,-0.216349,-0.009382,-0.026699,-0.003571,-0.029471,-2.94E-18,3.07E-16,0.014490986,-0.01043195,-0.029288617,-0.025049547
2701421,0.99502,-0.213905,-0.007916,-0.033729,9.50E-05,-0.017344,-0.012459262,-0.001720421,0.017705566,-0.007337202,-0.017230121,-0.032981164
2701431,0.989887,-0.215127,-0.009137,-0.029255,-0.001127,-0.019769,-0.010152317,-0.008739849,0.012946163,-0.007860963,-0.01945662,-0.028418017
2701441,0.995509,-0.212682,-0.005717,-0.034368,-0.005404,-0.017344,0.003678851,0.011202342,0.017922129,-0.013043576,-0.017543369,-0.032144553
2701451,0.994531,-0.214149,-0.010848,-0.034368,-0.003571,-0.018557,0.005751913,-0.010842405,0.01730956,-0.01183855,-0.018000052,-0.032773779
2701461,0.992331,-0.214883,-0.008893,-0.034368,9.50E-05,-0.019163,-0.016419655,0.000874837,0.015236048,-0.007426045,-0.019176679,-0.03354844
2701471,0.991842,-0.213171,-0.008893,-0.036285,-0.005404,-0.019163,0.007443254,-0.010224808,0.014451362,-0.013947293,-0.018571873,-0.034257606
2701481,0.99502,-0.214883,-0.007671,-0.033729,-0.004182,-0.019163,-0.015686284,0.003811228,0.017859403,-0.011390509,-0.019117635,-0.03204883
2701491,0.992331,-0.211705,-0.00816,-0.03309,-0.002349,-0.016738,2.37E-16,1.07E-16,0.014695228,-0.009834979,-0.016635107,-0.031735988
2701570,0.993554,-0.210482,-0.010848,-0.036285,-0.004793,-0.022195,-0.001871454,-0.013790246,0.01556695,-0.012992125,-0.021615727,-0.034585505
2701579.875,0.995509,-0.211705,-0.005228,-0.02606,-0.003571,-0.027046,0.012635975,-0.006863781,0.017682528,-0.009881515,-0.026780426,-0.024668324
2701589.75,0.991109,-0.212193,-0.004495,-0.033729,-0.005404,-0.027046,-0.002198516,0.011314447,0.013513825,-0.012846066,-0.027273977,-0.031455422
2701599.625,0.996976,-0.212438,-0.009626,-0.034368,-0.002349,-0.027046,-0.004167379,-0.010918026,0.019336617,-0.010533736,-0.026555368,-0.033196629
2701609.5,0.994531,-0.211705,-0.008893,-0.028616,-0.006015,-0.039173,0.005954856,-0.010531212,0.016781017,-0.013615436,-0.038607152,-0.026714927
2701619.375,0.993798,-0.212682,-0.007183,-0.030534,-0.00296,-0.034928,-0.008092385,0.010123689,0.016243926,-0.010220597,-0.035092213,-0.028725041
2701629.25,0.996731,-0.21146,-0.009382,-0.035007,-0.002349,-0.033109,0.014235972,-0.004981309,0.018846683,-0.011477755,-0.032806345,-0.033454725
2701639.125,0.98842,-0.211949,-0.008649,-0.024143,-0.003571,-0.040992,2.17E-16,4.08E-16,0.010925952,-0.010188749,-0.040812312,-0.022506114
2701702,0.992331,-0.218305,-0.005717,-0.035646,0.00315,-0.027046,0.010429674,0.005460444,0.016007862,-0.006032553,-0.027229008,-0.035131686
2701712,0.987931,-0.214638,-0.009137,-0.030534,-0.002349,-0.014312,0.00595606,-0.010690977,0.01094552,-0.009553065,-0.013886846,-0.029301378
2701722,0.989642,-0.216105,-0.007427,-0.032451,-0.002349,-0.011887,-0.006846859,0.010594917,0.012910997,-0.009412892,-0.012121466,-0.031054041
2701732,0.989887,-0.215127,-0.008893,-0.032451,-0.00296,-0.014312,0.015527345,-0.003354274,0.012908009,-0.010842789,-0.014071935,-0.030839535
2701742,0.987442,-0.21586,-0.008649,-0.033729,-0.006015,-0.006429,-0.011990075,-0.007423796,0.010699349,-0.012957213,-0.005946054,-0.031810577
2701752,0.992087,-0.213905,-0.006694,-0.031812,-0.00296,-0.004004,0.004069815,0.011091019,0.014838509,-0.00984551,-0.004239114,-0.030362688
2701762,0.989642,-0.214149,-0.008893,-0.028616,-0.004182,-0.005217,-0.009909814,-0.008802483,0.012499126,-0.010088728,-0.004799971,-0.027180131
2701772,0.993798,-0.212193,-0.006205,-0.033729,-0.003571,0.000847,1.02E-16,3.08E-16,0.016217908,-0.010512361,0.000951018,-0.032244391
2701835,0.995265,-0.209015,-0.005717,-0.032451,-0.001127,-0.007642,-0.006274359,0.009735466,0.016925871,-0.007801142,-0.007892365,-0.031457757
2701844.875,0.997709,-0.209749,-0.009137,-0.031812,-0.006015,-0.012493,-0.00812863,-0.009687801,0.01948097,-0.012729031,-0.01193108,-0.029997995
2701854.75,0.997465,-0.208038,-0.006938,-0.035007,-0.003571,-0.019769,0.015783484,-0.000359473,0.018830272,-0.011812514,-0.019623616,-0.033233021
2701864.625,0.996242,-0.20926,-0.006938,-0.033729,-0.001738,-0.030684,-0.002766911,0.011345374,0.017938914,-0.00955465,-0.030966093,-0.032124503
2701874.5,0.994287,-0.208526,-0.00816,-0.036285,-0.004182,-0.028258,-0.015647095,-0.003101551,0.015825706,-0.012101139,-0.027963218,-0.034701957
2701884.375,0.994531,-0.205593,-0.007427,-0.034368,-0.001738,-0.035535,0.012248531,0.006819666,0.015489546,-0.010326225,-0.035666751,-0.032682844
2701894.25,0.99502,-0.209993,-0.00987,-0.032451,-0.002349,-0.039173,-0.001865314,-0.011194406,0.016922063,-0.010759092,-0.038673503,-0.031332272
2701904.125,0.994287,-0.209504,-0.005717,-0.035646,-0.005404,-0.044024,-9.45E-17,8.70E-19,0.016135448,-0.013813038,-0.043860207,-0.033517687
2701967,0.990865,-0.212193,-0.010359,-0.03309,-0.001127,-0.037354,0.007649674,0.003432929,0.013349063,-0.009283597,-0.037557184,-0.031540646
2701977,0.993309,-0.213416,-0.008649,-0.031812,-0.00296,-0.036748,0.007673912,-0.010142757,0.015934151,-0.011276503,-0.036291325,-0.030446029
2701987,0.986954,-0.213905,-0.00645,-0.038203,9.50E-05,-0.028865,0.008821639,0.009334805,0.009807006,-0.009185228,-0.029193945,-0.036824063
2701997,0.989398,-0.214883,-0.006938,-0.03309,-0.001738,-0.028865,-0.001597631,0.011488548,0.012421208,-0.009592202,-0.029149937,-0.031455171
2702007,0.987931,-0.214149,-0.009626,-0.029255,-0.003571,-0.025227,0.010646984,-0.008694251,0.010826972,-0.011096974,-0.02479957,-0.027692004
2702017,0.990131,-0.216349,-0.008404,-0.036925,-0.000516,-0.018557,0.01546844,0.002734511,0.013405232,-0.009645715,-0.018616762,-0.035615453
2702027,0.987687,-0.218305,-0.008893,-0.029895,-0.00296,-0.01795,-0.003544941,-0.011073943,0.011497192,-0.009963854,-0.017499352,-0.028621136
2702037,0.989154,-0.217572,-0.004984,-0.03309,-0.002349,-0.011887,-1.85E-17,1.25E-16,0.012811953,-0.009669648,-0.011830087,-0.031753954
2702100,0.99282,-0.209504,-0.007427,-0.031173,-0.004182,0.00873,-0.007214075,-0.001138216,0.014684828,-0.010120759,0.008783161,-0.029763808
2702109.875,0.998443,-0.208526,-0.005717,-0.03309,-0.003571,0.011155,-0.004204321,0.011132661,0.019932639,-0.009827427,0.010904903,-0.031884776
2702119.75,0.994776,-0.206082,-0.009626,-0.036285,-0.006015,0.004485,-0.00530058,-0.010574226,0.015874909,-0.012866219,0.005121751,-0.034367496
2702129.625,0.996242,-0.205837,-0.008404,-0.027338,-0.004182,-0.006429,-0.013771053,-0.005651379,0.017209929,-0.009535094,-0.006106174,-0.026038126
2702139.5,0.998443,-0.204126,-0.007427,-0.028616,-0.00296,-0.008855,0.014299607,-0.005130486,0.019009425,-0.009335425,-0.008600891,-0.02729327
2702149.375,0.998931,-0.206571,-0.006694,-0.035646,-0.004182,-0.020376,0.014242319,0.004870859,0.019976942,-0.012440001,-0.020387333,-0.033658741
2702159.25,0.938064,-0.203882,-0.00987,-0.033729,0.000706,-0.019769,-0.011518428,-0.000741538,-0.0400541,-0.006722667,-0.019863917,-0.033002845
2702169.125,1.000643,-0.201926,-0.008649,-0.026699,-0.001127,-0.035535,1.50E-16,2.79E-16,0.020850297,-0.00788019,-0.03545422,-0.025646517
2702252,0.997465,-0.209749,-0.008893,-0.031812,0.001928,-0.103448,0.006648882,-0.002088011,0.019294652,-0.009240156,-0.103366552,-0.030776364
2702262,0.99942,-0.209015,-0.007916,-0.040759,-0.001738,-0.109512,0.01021206,-0.008388859,0.020987566,-0.014531637,-0.109042286,-0.03944371
2702272,0.995509,-0.213905,-0.004006,-0.034368,-0.004793,-0.112543,0.010387375,0.008033691,0.018153784,-0.014325821,-0.11267858,-0.031118606
2702282,0.990865,-0.216105,-0.006205,-0.034368,-0.002349,-0.121639,0.014250532,0.00314413,0.01407118,-0.013520456,-0.121616676,-0.03176956
2702292,0.99282,-0.219772,-0.006938,-0.03309,0.001928,-0.125883,0.01486059,0.001722109,0.016767239,-0.009662481,-0.125931353,-0.031513899
2702302,0.987198,-0.22075,-0.007183,-0.04012,-0.002349,-0.116788,0.007145754,0.009799691,0.011530995,-0.01505468,-0.117005722,-0.036573033
2702312,0.984509,-0.221972,-0.009382,-0.032451,-0.004182,-0.111937,0.014845637,-0.002091739,0.009154494,-0.016302109,-0.111594027,-0.02968944
2702322,0.984754,-0.224661,-0.009137,-0.033729,-0.002349,-0.107086,1.37E-16,2.84E-16,0.010097268,-0.014038643,-0.106902091,-0.031391625
2702385,0.978398,-0.231017,-0.008404,-0.034368,-0.006015,-0.043418,0.007988574,6.09E-05,0.005305081,-0.015734885,-0.043103089,-0.031575299
2702394.875,0.981331,-0.232484,-0.008893,-0.036925,-0.004182,-0.028258,0.000392167,-0.011229585,0.008470213,-0.013657123,-0.027685225,-0.035021003
2702404.75,0.979376,-0.23224,-0.00645,-0.031173,-0.002349,-0.01795,-0.015889913,-0.000747774,0.006429988,-0.009500713,-0.017852578,-0.029841215
2702414.625,0.981331,-0.229551,-0.006205,-0.034368,-0.004793,-0.005823,0.001524869,0.011257676,0.00777658,-0.012699587,-0.00604854,-0.032251748
2702424.5,0.982309,-0.230284,-0.010848,-0.030534,-0.004793,0.004485,-0.000516697,-0.011191339,0.008936994,-0.011416049,0.005026745,-0.028632479
2702434.375,0.983531,-0.230528,-0.007916,-0.031173,-0.005404,0.016006,-0.015655319,-0.000310945,0.010095968,-0.011381267,0.01619494,-0.029416694
2702444.25,0.984754,-0.226617,-0.007671,-0.035007,-0.004793,0.027527,0.00871053,0.00955504,0.0104392,-0.011893561,0.027362191,-0.033407369
2702454.125,0.984754,-0.229306,-0.010848,-0.036285,-0.004793,0.037229,4.20E-17,2.15E-16,0.011157436,-0.011187069,0.037413903,-0.03464999
2702517,0.992087,-0.215127,-0.008404,-0.025421,-0.004182,0.047537,0.0006146,-0.000868985,0.015177687,-0.007278099,0.047747119,-0.024304828
2702526.875,0.994287,-0.214394,-0.007183,-0.033729,-0.001738,0.047537,-0.015186278,0.003028062,0.017046326,-0.006746569,0.047472395,-0.033185659
2702536.75,0.998931,-0.210727,-0.007916,-0.03309,-0.00296,0.040867,-0.00127166,-0.011280811,0.020883343,-0.008174984,0.041303998,-0.031638121
2702546.625,0.99942,-0.210482,-0.004495,-0.033729,-0.004182,0.028134,0.000252804,0.011458547,0.021289308,-0.01045538,0.027856309,-0.032578637
2702556.5,0.998687,-0.210238,-0.009137,-0.032451,-0.003571,0.022676,-0.012736645,-0.006546116,0.02051661,-0.008821727,0.023012774,-0.031186692
2702566.375,1.000643,-0.207549,-0.007427,-0.03309,-0.000516,0.016613,-0.001803906,0.011399523,0.021902617,-0.006584923,0.016260291,-0.032610548
2702576.25,1.001131,-0.207304,-0.009137,-0.033729,-0.001127,0.003273,0.010716868,-0.008667659,0.022316846,-0.008149451,0.003599556,-0.032714794
2702586.125,0.99942,-0.208282,-0.00816,-0.030534,-0.002349,-0.012493,2.51E-16,-7.86E-17,0.020925224,-0.009010637,-0.012391466,-0.029311738
2702648,0.996976,-0.213416,-0.007183,-0.028616,-0.000516,-0.080406,0.009789337,-0.000855683,0.01954037,-0.009860617,-0.080266988,-0.027280862
2702658,0.995509,-0.212438,-0.007671,-0.031173,-0.003571,-0.081619,0.013923309,0.004596526,0.017846713,-0.013300637,-0.08156317,-0.028578164
2702668,0.993065,-0.216349,-0.009137,-0.033729,-0.002349,-0.087682,-0.015423417,-0.004859652,0.016271111,-0.012639157,-0.087347323,-0.032279922
2702678,0.992087,-0.214883,-0.008649,-0.036285,0.001317,-0.090714,0.008268804,0.009379323,0.015051614,-0.010273906,-0.091009506,-0.034045295
2702688,0.990376,-0.216349,-0.010603,-0.031173,-0.002349,-0.087076,0.012986836,-0.006222971,0.013684641,-0.013518446,-0.086673072,-0.029402954
2702698,0.987931,-0.223928,-0.007427,-0.03309,0.001317,-0.085257,-0.002500935,0.011510357,0.012950062,-0.008736821,-0.08560888,-0.030987517
2702708,0.985976,-0.222706,-0.011581,-0.029895,-0.004182,-0.080406,0.012655449,-0.006698508,0.01077976,-0.015109821,-0.079893666,-0.027659003
2702718,0.983531,-0.226617,-0.009626,-0.031812,0.001317,-0.072523,-1.07E-16,1.92E-17,0.009346894,-0.008865723,-0.072513554,-0.030602399
2702781,0.983042,-0.226861,-0.006694,-0.027977,-0.001127,-0.008855,0.00402863,-0.008119488,0.008860813,-0.007866725,-0.00850135,-0.026985836
2702791,0.980842,-0.227595,-0.005961,-0.031812,-0.00296,0.00206,-0.006525898,0.010498117,0.00684321,-0.009825257,0.001823212,-0.030416258
2702801,0.985242,-0.227106,-0.00816,-0.032451,-0.002349,0.012974,-0.008073236,0.010001644,0.011029332,-0.008872888,0.012743333,-0.03139728
2702811,0.982798,-0.225395,-0.009382,-0.033729,-0.002349,0.02207,-0.014705294,0.00453816,0.008239057,-0.008455862,0.022004175,-0.032780525
2702821,0.987687,-0.222706,-0.010359,-0.030534,-0.003571,0.029346,0.00461776,-0.011081376,0.012465684,-0.008995883,0.02980179,-0.028934276
2702831,0.984265,-0.223439,-0.006938,-0.034368,-0.006626,0.034804,-0.012947015,0.006625156,0.009227028,-0.012590399,0.034783257,-0.032680095
2702841,0.988176,-0.220505,-0.008649,-0.028616,-0.001738,0.04208,-0.008856726,-0.009184653,0.012435809,-0.006067462,0.042369255,-0.027579968
2702851,0.988909,-0.219039,-0.006938,-0.029255,-0.003571,0.04208,1.30E-16,-2.05E-16,0.012900405,-0.008513566,0.04217196,-0.028078077
2702913,0.994531,-0.21146,-0.010115,-0.027977,-0.001127,0.036016,-0.006909068,-0.000228601,0.016789933,-0.005612253,0.035949541,-0.027518504
2702923,0.996487,-0.20706,-0.009137,-0.033729,-0.006015,0.033591,0.01000921,-0.00942749,0.017720299,-0.011605603,0.034122143,-0.031672863
2702933,0.996731,-0.210727,-0.005961,-0.029895,-0.003571,0.030559,-0.014851306,0.004601983,0.018662039,-0.008405141,0.030519768,-0.028951907
2702943,0.998198,-0.208282,-0.006694,-0.02606,-0.00296,0.022676,-0.009167206,0.009670388,0.019631254,-0.007274903,0.022522813,-0.025335447
2702953,0.995754,-0.204615,-0.009626,-0.033729,-0.006626,0.020251,-0.008856547,-0.009310098,0.016523915,-0.012062259,0.020836094,-0.031812127
2702963,0.997465,-0.201926,-0.006205,-0.036925,-0.005404,0.012368,-0.000397766,0.011558505,0.017651846,-0.012233976,0.012131183,-0.03533823
2702973,1.001376,-0.202415,-0.010848,-0.030534,-0.00296,-0.000972,-0.008622973,-0.009591563,0.021605135,-0.008758435,-0.000532905,-0.029411517
2702983,1.00162,-0.199726,-0.007427,-0.040759,-0.00296,-0.013099,-7.28E-17,6.50E-17,0.021365879,-0.011353969,-0.012979958,-0.039296941
2703045,1.001131,-0.203393,-0.006205,-0.028616,-0.004793,-0.109512,0.010970553,0.003975707,0.021535283,-0.014697487,-0.109320271,-0.025841609
2703055,1.001131,-0.204859,-0.008404,-0.036925,-0.00846,-0.123458,-0.001438327,-0.011495773,0.021844849,-0.020632655,-0.122617425,-0.034873565
2703065,1.001865,-0.205104,-0.005961,-0.029255,-0.001127,-0.137404,0.008195971,0.009160639,0.022587684,-0.01114273,-0.137551513,-0.026313595
2703075,0.998931,-0.206815,-0.00816,-0.032451,0.001317,-0.159234,0.012183281,-0.006201178,0.020056511,-0.011871533,-0.158968485,-0.031596772
2703085,0.998931,-0.210482,-0.006694,-0.037564,9.50E-05,-0.169542,0.014053948,0.002693994,0.02078688,-0.013465273,-0.169548848,-0.035034661
2703095,0.995265,-0.217572,-0.00816,-0.031812,-0.003571,-0.174999,0.014485435,-0.000393202,0.018698483,-0.017145765,-0.174726861,-0.028739385
2703105,0.987931,-0.22515,-0.00816,-0.027338,9.50E-05,-0.177425,0.013706791,0.003556709,0.013196053,-0.012644652,-0.177395284,-0.024454693
2703115,0.975954,-0.23224,-0.010603,-0.033729,0.003761,-0.158627,2.60E-16,1.01E-16,0.003261706,-0.011198784,-0.158633467,-0.032005094
2703177,0.983042,-0.234195,-0.006694,-0.036925,-0.000516,-0.09314,0.015123039,0.002927866,0.010458511,-0.013743681,-0.092978554,-0.034711398
2703187,0.97962,-0.234684,-0.010603,-0.034368,0.000706,-0.090714,-0.016876198,-0.000564343,0.007253306,-0.010792129,-0.090631247,-0.032866314
2703197,0.983776,-0.232484,-0.010359,-0.036925,-0.005404,-0.082831,0.010238189,-0.00856475,0.010837851,-0.017716403,-0.082213281,-0.034361882
2703207,0.984754,-0.235173,-0.008649,-0.036925,9.50E-05,-0.074342,-0.00937134,-0.0095181,0.01239477,-0.010835713,-0.073956854,-0.036099429
2703217,0.982798,-0.233462,-0.007183,-0.02606,0.000706,-0.072523,0.003940319,0.010954647,0.010105182,-0.00762554,-0.072774962,-0.024183953
2703227,0.983042,-0.235173,-0.011336,-0.030534,-0.002349,-0.064034,0.015301942,-0.002470512,0.010725564,-0.012840315,-0.063773657,-0.028394419
2703237,0.978642,-0.238107,-0.010848,-0.030534,-0.002349,-0.056151,0.012828961,-0.006795065,0.007145487,-0.012373222,-0.055788486,-0.028728487
2703247,0.972531,-0.243485,-0.007671,-0.037564,9.50E-05,-0.033109,-5.90E-17,2.95E-17,0.002576848,-0.010046519,-0.033095572,-0.036208004
2703310,0.967398,-0.242996,-0.008893,-0.029255,-0.005404,0.071186,0.012714703,0.005353922,-0.002606044,-0.010527029,0.071140621,-0.027940984
2703319.875,0.968865,-0.243974,-0.008404,-0.034368,-0.005404,0.099078,-0.005210567,-0.010037261,-0.000917705,-0.010127122,0.099533677,-0.031895161
2703329.75,0.968376,-0.242507,-0.006205,-0.032451,-0.005404,0.12879,0.013741318,-0.007244543,-0.001822202,-0.010314827,0.129109564,-0.029890792
2703339.625,0.976442,-0.251308,-0.00254,-0.027338,-0.002349,0.160321,-0.012343234,0.005107819,0.008177909,-0.007147559,0.16020316,-0.027194979
2703349.5,0.967642,-0.24373,-0.004251,-0.030534,-0.006626,0.19731,-0.012964876,0.003246142,-0.002215054,-0.010111701,0.19730344,-0.029606944
2703359.375,0.97082,-0.232729,-0.00645,-0.029255,-0.003571,0.222777,-0.013221291,0.001275292,-0.0017418,-0.003831889,0.222754485,-0.029393112
2703369.25,0.982309,-0.22735,-0.006938,-0.032451,9.50E-05,0.251276,-0.01278432,-0.002752389,0.00821432,0.000728095,0.25124624,-0.032672641
2703379.125,0.988909,-0.222706,-0.005717,-0.027338,-0.000516,0.260372,-5.95E-17,-1.34E-16,0.013692092,7.05E-06,0.260299494,-0.028024708
2703441,0.975709,-0.206326,-0.007671,-0.032451,-0.010293,0.408931,0.001689102,-0.000217562,-0.002686401,-0.006453169,0.408992676,-0.032663796
2703451,0.97522,-0.20706,-0.006938,-0.028616,-0.012126,0.440463,-0.003388605,0.009765169,-0.003070119,-0.003149113,0.440322211,-0.032863405
2703461,0.971065,-0.201926,-0.011581,-0.02606,-0.007849,0.47927,-0.008187574,-0.005823357,-0.00814592,0.014293345,0.479092488,-0.026581035
2703471,0.971309,-0.19997,-0.010603,-0.035007,-0.012737,0.520503,-0.001329093,-0.010047331,-0.008315129,0.007677069,0.520795835,-0.031997743
2703481,0.971798,-0.195081,-0.002785,-0.028616,-0.013348,0.565374,-0.003535544,0.009028204,-0.008858387,-0.010521129,0.5652406,-0.032205188
2703491,0.970087,-0.188969,-0.007916,-0.032451,-0.009071,0.613277,-0.008095303,-0.004131699,-0.011689255,0.010569504,0.613256757,-0.032379999
2703501,0.971554,-0.183835,-0.006205,-0.031173,-0.012737,0.655722,-0.008508783,-0.00220276,-0.011226147,0.003906711,0.655847811,-0.030882274
2703511,0.989398,-0.169412,-0.003273,-0.029895,-0.012126,0.700594,2.21E-16,-5.25E-17,0.003802541,-0.003657499,0.700697515,-0.029703857
2703573,1.000398,-0.102673,-0.010359,-0.022226,-0.024957,0.801857,0.059773652,-0.009507389,0.003883426,-0.012686517,0.802215435,-0.019517783
2703583,1.003087,-0.099984,0.003323,-0.030534,-0.017014,0.81459,-0.000266384,0.009925391,0.00801428,-0.046646727,0.813292422,-0.034032176
2703593,1.002843,-0.093872,-0.003762,-0.031812,-0.016403,0.835813,-0.004824161,0.006404193,0.007202016,0.014494201,0.835566434,-0.038510838
2703603,0.991842,-0.086538,-0.00645,-0.03309,-0.021291,0.858855,-0.001143274,-0.008812496,-0.004408711,0.039874101,0.858339771,-0.029035493
2703613,0.997954,-0.078715,0.001613,-0.028616,-0.023124,0.88978,-0.000751301,0.009217665,0.001012142,-0.043242859,0.888858966,-0.033493823
2703623,1.000643,-0.063803,-0.012558,-0.02606,-0.015792,0.90979,-0.006665539,-0.000101763,0.002731519,0.15873967,0.895659307,-0.035248809
2703633,1.000643,-0.050357,-0.011092,-0.026699,-0.031678,0.931013,-0.00303782,-0.007616222,0.001937143,0.168158479,0.916212632,-0.027904785
2703643,1.04782,-0.029333,0.006744,-0.026699,-0.029845,0.932225,0.023591563,0.004920928,0.047975134,0.170207147,0.917001987,-0.027998117
2703705,1.001131,0.021027,-0.007183,-0.023504,-0.020069,0.964969,0.061408625,-0.017772973,-0.000665165,0.187374297,0.946761258,-0.025580597
2703714.875,1.01482,0.029094,-0.002052,-0.027977,-0.025568,0.96982,-0.000818432,0.008862895,0.015200021,0.092611081,-0.965877693,-0.022152577
2703724.75,1.02582,0.040829,0.008699,-0.029255,-0.019458,0.975277,0.005992822,-0.001818825,0.026649955,-0.185565774,-0.957844081,-0.022355203
2703734.625,1.02582,0.057941,0.00821,-0.029255,-0.007237,0.98316,0.002565338,-0.00696293,0.027461032,-0.132465591,-0.974258122,-0.028032023
2703744.5,1.010176,0.071876,0.00088,-0.026699,-0.003571,0.973458,0.004418741,-0.005532981,0.012705458,-0.010654758,-0.973268807,-0.031310893
2703754.375,1.016287,0.088255,-0.005228,-0.032451,-0.009682,0.959512,-0.002357804,0.009844218,0.020075034,0.063122943,-0.9576022,-0.028698542
2703764.25,1.013598,0.095589,0.004789,-0.025421,-0.013348,0.925555,0.00540394,-0.004941479,0.01808029,-0.03553873,-0.924938219,-0.026509331
2703774.125,1.011643,0.104879,0.001857,-0.023504,-0.012126,0.904333,-1.09E-16,8.41E-19,0.017066671,-0.006288989,-0.904405947,-0.022977917
2703835,1.022643,0.17064,0.0065,-0.028616,-0.011515,0.679977,-0.054494692,-0.004105053,0.03536102,-0.003873239,-0.680055967,-0.028793587
2703844.875,1.018487,0.17284,0.000147,-0.019669,-0.006015,0.6345,-0.046731796,0.001885189,0.031989361,-0.007910321,-0.634483562,-0.019527841
2703854.75,1.007243,0.180663,0.00088,-0.030534,-0.013959,0.587809,0.006281698,0.007850736,0.023267932,0.005169625,-0.588100096,-0.027534544
2703864.625,1.02362,0.194109,0.007966,-0.029255,-0.012737,0.532024,0.004689508,-0.005731896,0.041866028,0.004139836,-0.532119201,-0.029994002
2703874.5,1.022398,0.201687,0.003323,-0.022226,-0.017014,0.477451,0.00893272,0.001786908,0.042066875,0.009580886,-0.477629006,-0.022840046
2703884.375,1.026065,0.212933,0.004789,-0.022865,-0.015792,0.391347,0.010312386,0.005636201,0.047871495,0.008414826,-0.391636608,-0.021785961
2703894.25,1.026798,0.220756,0.008454,-0.013278,-0.013348,0.296754,-0.01568919,0.000552476,0.050177299,0.008788299,-0.296931399,-0.01311187
2703904.125,1.030709,0.220267,0.010165,-0.009444,-0.009071,0.196703,-0.014454458,-0.00113383,0.053931546,0.005918576,-0.196826846,-0.009365115
2703964,1.00382,0.187997,0.019449,0.007812,0.008038,-0.163478,-0.001074286,-0.00609463,0.021438901,-0.005526746,0.163618297,0.007014354
2703974,1.00382,0.181397,0.014318,0.010368,0.00926,-0.195616,-0.009011421,-0.00804731,0.020107104,0.007780496,0.195661697,0.010715714
2703984,1.001376,0.169907,0.005278,0.024428,0.008038,-0.220477,-0.005550695,0.010164531,0.015635767,0.0027245,0.22085316,0.022088531
2703994,1.000887,0.164284,0.011875,0.029541,0.00926,-0.231997,0.008528745,0.010229306,0.014262124,0.012319529,0.232335108,0.025488294
2704004,0.996242,0.174063,0.032398,0.041683,0.007427,-0.22654,0.011002184,-0.010634286,0.011736895,0.041192857,0.223716905,0.036971605
2704014,1.036087,0.189708,0.027023,0.05766,0.011093,-0.188945,0.00222537,0.009231205,0.053615429,0.033617387,0.187882316,0.052134919
2704024,1.110887,0.207065,0.029711,0.079389,0.040422,-0.121639,-0.008001099,-0.000653575,0.130382298,-0.003367352,0.126300649,0.082276392
2704034,1.164421,0.206821,0.025313,0.087697,0.077083,-0.052513,0.00254365,0.003217087,0.182909599,-0.049661435,0.064806634,0.098610395
2704094,1.235799,0.207799,-0.038701,0.126043,0.383203,0.490185,0.013368736,0.059010581,0.252284468,-0.436783669,-0.416391473,0.197106264
2704104,1.209399,0.197042,-0.049207,0.096006,0.44186,0.591448,0.011565052,0.060951035,0.224762851,-0.517148859,-0.507105986,0.172246117
2704114,1.179332,0.201687,-0.062889,0.065968,0.476077,0.684222,-0.001779549,0.069237774,0.196101836,-0.571438834,-0.593475321,0.142847941
2704124,1.152932,0.212933,-0.06973,0.039127,0.507239,0.757592,-0.01954974,0.072432126,0.172103377,-0.618359875,-0.660999196,0.11609949
2704134,1.134843,0.223934,-0.075106,0.018676,0.518238,0.810952,-0.035950454,0.074298135,0.156219414,-0.641226692,-0.712008709,0.091839492
2704144,1.119687,0.223445,-0.08439,-0.013278,0.521904,0.852185,-0.039717854,0.078104223,0.141521152,-0.656646693,-0.751400323,0.054699542
2704154,1.109665,0.222711,-0.089521,-0.04715,0.503573,0.880078,-0.042290753,0.07762956,0.131881511,-0.648670801,-0.780650159,0.012557702
2704164,1.10331,0.225645,-0.094407,-0.076548,0.478521,0.884322,-0.045224255,0.083206324,0.126122897,-0.629206135,-0.78775271,-0.020313823
2704224,1.018487,0.31463,-0.166972,-0.300228,0.438194,0.845515,-0.129727605,0.168832966,0.057758778,-0.617960039,-0.743653864,-0.24930056
2704234,1.002109,0.32832,-0.171615,-0.359663,0.451637,0.852791,-0.141787049,0.172600079,0.044784104,-0.644217891,-0.74211464,-0.307953101
2704244,0.983287,0.324165,-0.156466,-0.407595,0.439416,0.850366,-0.139350936,0.154647327,0.02619852,-0.643007206,-0.735388135,-0.357894485
2704254,0.984998,0.325876,-0.138142,-0.449135,0.41742,0.854004,-0.138844245,0.134236289,0.02868962,-0.633542251,-0.736458685,-0.401917103
2704264,0.973754,0.327832,-0.116397,-0.477894,0.388091,0.84976,-0.141611729,0.110760022,0.018281528,-0.61412043,-0.731212436,-0.43505612
2704274,0.960798,0.322209,-0.11884,-0.518796,0.338598,0.835207,0.000814875,-0.006173022,0.020311527,-0.206565683,-0.896827265,-0.484148843
2704284,0.94662,0.326365,-0.131545,-0.539886,0.290939,0.80792,0.003881599,-0.004315596,0.00988808,-0.164407732,-0.855052979,-0.52029955
2704294,0.934398,0.338099,-0.146205,-0.536051,0.242058,0.764262,-1.96E-16,-1.45E-16,0.004383621,-0.121082684,-0.797558768,-0.528467738
2704354,0.848353,0.364257,-0.115419,-0.594847,0.045921,0.544151,-0.041535221,-0.027102863,-0.070888715,-0.060523247,-0.524760072,-0.610750199
2704364,0.835153,0.361568,-0.084634,-0.598682,0.008038,0.508982,-0.032084092,-0.043545528,-0.087613424,-0.046094497,-0.48476175,-0.616789077
2704374,0.810708,0.357901,-0.067287,-0.591652,-0.043288,0.4726,-0.030731569,-0.048353376,-0.11310336,-0.016217286,-0.438544612,-0.618621308
2704384,0.781864,0.364012,-0.04261,-0.589096,-0.102556,0.441675,-0.038561649,-0.064613033,-0.139785016,0.022388738,-0.394979288,-0.629379649
2704394,0.791886,0.379414,-0.006938,-0.576953,-0.148383,0.442282,-0.034055876,-0.094128819,-0.127608735,0.062424356,-0.385432589,-0.630912486
2704404,0.804353,0.423907,-0.004006,-0.557141,-0.210706,0.450771,-0.062567023,-0.103776861,-0.098882543,0.120582844,-0.377030205,-0.633486866
2704414,0.806308,0.46131,-0.014024,-0.546916,-0.268753,0.4726,-0.091389169,-0.100053733,-0.08088442,0.174639983,-0.382900535,-0.646207476
2704424,0.825619,0.493824,-0.027706,-0.516879,-0.329244,0.500493,-0.116449642,-0.097027037,-0.049578129,0.247527755,-0.387532121,-0.643900319
2704537,0.883309,0.493579,-0.007671,-0.298311,-0.505828,0.328891,-0.080627051,-0.105438903,0.003142951,0.424065596,-0.161809825,-0.496997645
2704546.875,0.877198,0.498713,0.001124,-0.309175,-0.480776,0.219745,-0.013883685,0.004144946,0.008951096,0.270562808,-0.224189979,-0.50155481
2704556.75,0.85862,0.474756,0.006744,-0.315566,-0.444115,0.074217,-0.013949305,-0.005206515,-0.018957007,0.24155331,-0.07901874,-0.487582028
2704566.625,0.846886,0.443464,0.001369,-0.319401,-0.400122,-0.088289,0.003072193,-0.011128448,-0.0441,0.206634354,0.088602647,-0.468360306
2704576.5,0.832464,0.431974,-0.013291,-0.316845,-0.366516,-0.264135,0.00529677,-0.007510567,-0.062082075,0.183751764,0.269363277,-0.445163728
2704586.375,0.822197,0.423662,-0.027706,-0.316845,-0.324967,-0.400567,0.006079933,-0.00281062,-0.074678351,0.153040161,0.410158977,-0.418086772
2704596.25,0.813397,0.41095,-0.039189,-0.30598,-0.276085,-0.57035,0.012133904,-0.000242692,-0.087923759,0.122371502,0.583196433,-0.374236484
2704606.125,0.804108,0.404349,-0.045786,-0.299589,-0.228426,-0.726792,0.013918324,0.006776539,-0.098920366,0.088200315,0.73951633,-0.339845435
2704668,0.74153,0.320009,-0.06973,-0.259966,0.013537,-1.111835,0.059269298,0.0285284,-0.19203462,-0.093615174,1.125269627,-0.170138488
2704677.875,0.728819,0.301674,-0.073395,-0.226094,0.037367,-1.110622,0.068170628,0.028267514,-0.211251069,-0.097805618,1.12306861,-0.123073049
2704687.75,0.713175,0.282361,-0.081458,-0.205004,0.053253,-1.077272,0.076071349,0.033215216,-0.233128681,-0.102386967,1.089095133,-0.093627899
2704697.625,0.705352,0.269404,-0.083413,-0.174967,0.064863,-1.031794,0.080878029,0.032008736,-0.245353147,-0.100101192,1.042028111,-0.059805396
2704707.5,0.702419,0.256203,-0.086833,-0.134705,0.073417,-0.954786,0.08744644,0.031938902,-0.25306933,-0.092154848,0.962405355,-0.020861803
2704717.375,0.698997,0.252292,-0.090009,-0.10339,0.076472,-0.846246,0.084931695,0.031293455,-0.256927321,-0.084865241,0.851728949,0.005043837
2704727.25,0.705597,0.257181,-0.096362,-0.076548,0.070973,-0.721941,0.078591085,0.032469258,-0.24762774,-0.07282928,0.725493331,0.021234234
2704737.125,0.709263,0.265737,-0.101004,-0.041398,0.073417,-0.608551,0.072641813,0.036725066,-0.240232667,-0.063565958,0.609436303,0.044552569
2704799,0.833197,0.31952,-0.073884,0.152245,-0.004793,0.374369,0.058631482,-0.000877673,-0.106506466,0.056082526,-0.386177257,0.105240381
2704808.875,0.851531,0.324165,-0.070219,0.161831,-0.019458,0.507163,0.04165823,-0.006229432,-0.087122963,0.067629461,-0.519157678,0.09840608
2704818.75,0.863509,0.313897,-0.07364,0.188034,-0.037177,0.640563,0.034358423,-0.004594114,-0.078913488,0.088654279,-0.654217656,0.105827922
2704828.625,0.874753,0.304118,-0.077793,0.195703,-0.054286,0.758805,0.02527264,-0.002731242,-0.070975698,0.102732438,-0.77258941,0.097894393
2704838.5,0.896264,0.300696,-0.081947,0.206568,-0.077505,0.83642,0.012965683,0.000366182,-0.051182678,0.125018667,-0.850439844,0.096944238
2704848.375,0.928042,0.30803,-0.079259,0.219988,-0.095835,0.890993,-0.010237554,-0.015063562,-0.019135736,0.368982655,-0.84017325,0.09699641
2704858.25,0.95102,0.314875,-0.082924,0.230853,-0.115999,0.922524,0.005798588,0.001928058,0.005198664,0.404611234,-0.861976359,0.105289656
2704868.125,0.979376,0.336143,-0.083901,0.228936,-0.136773,0.935257,-0.004511445,-0.002489096,0.038836991,0.42601641,-0.868996556,0.095808173
2704929,1.033887,0.354723,-0.073395,0.125404,-0.21865,0.583565,0.001175952,-0.008983484,0.095470436,0.381710842,-0.508295086,0.003877324
2704938.875,1.04122,0.366213,-0.076327,0.108148,-0.222927,0.507769,-0.002460847,-0.00091967,0.106376952,0.361482653,-0.434175726,-0.00659733
2704948.75,1.05002,0.375502,-0.071441,0.088336,-0.235758,0.414995,0.002869861,-0.001113439,0.117424759,0.343837877,-0.341770017,-0.023972977
2704958.625,1.061509,0.388459,-0.070463,0.058938,-0.241868,0.336168,0.005477991,0.002403672,0.132533002,0.319795086,-0.265050631,-0.049618624
2704968.5,1.074221,0.40166,-0.06802,0.040405,-0.247367,0.247032,-0.011367186,0.004391376,0.148807963,0.297393531,-0.178437383,-0.059707571
2704978.375,1.083265,0.401416,-0.068264,0.021871,-0.252256,0.173055,-0.012512182,-0.011082761,0.157142367,0.278030211,-0.105341325,-0.0752454
2704988.25,1.088643,0.393104,-0.06631,-0.001136,-0.262643,0.063909,-0.005714253,-0.001037386,0.159326366,0.253975906,0.001481858,-0.092525885
2704998.125,1.084243,0.384792,-0.063866,-0.025421,-0.261421,-0.0513,0.000947746,-0.001518278,0.152268818,0.217398099,0.112270885,-0.108407433
2705059,1.035598,0.384548,-0.054582,-0.118089,-0.317023,-0.566712,-0.001299583,-0.000340375,0.106036967,0.114059724,0.620923063,-0.19249939
2705068.875,1.029976,0.375013,-0.04994,-0.140457,-0.327411,-0.593392,-0.003259837,-0.006781179,0.097234115,0.112799591,0.649002648,-0.212395886
2705078.75,1.025331,0.368902,-0.053116,-0.146847,-0.340242,-0.619465,0.015792859,-0.013518335,0.090771055,0.114639543,0.679107488,-0.216185895
2705088.625,1.017265,0.366213,-0.056537,-0.153877,-0.35674,-0.64372,0.011369304,-0.002925188,0.082588868,0.123956003,0.704676176,-0.231048466
2705098.5,1.012131,0.369391,-0.060446,-0.169855,-0.368349,-0.645539,0.018094403,0.010931872,0.078918754,0.127378023,0.705809078,-0.258574345
2705108.375,1.006509,0.375013,-0.059224,-0.174967,-0.36896,-0.645539,0.004105244,-0.001078275,0.075725143,0.129727514,0.707674638,-0.25657925
2705118.25,1.009443,0.372813,-0.058247,-0.181997,-0.379347,-0.621285,-0.001698462,-0.001246956,0.077660882,0.146248065,0.68577551,-0.267105895
2705128.125,1.026554,0.370613,-0.057025,-0.201809,-0.38118,-0.595211,0.006523813,-0.001506091,0.092874253,0.146751248,0.660282772,-0.28773587
2705190,1.100132,0.335166,-0.056292,-0.293837,-0.328633,-0.442407,0.052358278,0.00635278,0.150223329,0.106080024,0.497233517,-0.3627253
2705200,1.116265,0.340299,-0.049696,-0.304063,-0.310913,-0.441194,0.042375264,-0.000134446,0.167272449,0.092302648,0.491273924,-0.365928271
2705210,1.137288,0.341033,-0.044565,-0.318762,-0.283417,-0.430279,0.037089974,-0.004202633,0.187569035,0.07022662,0.473797086,-0.371024217
2705220,1.169799,0.337121,-0.043587,-0.333461,-0.255922,-0.432705,0.038368206,-0.002328808,0.217580615,0.04533578,0.469348185,-0.376274998
2705230,1.207932,0.330765,-0.039434,-0.338573,-0.216817,-0.438162,0.043656972,-0.002878913,0.252256373,0.011912304,0.465860169,-0.369404421
2705240,1.23751,0.32392,-0.037235,-0.344325,-0.183822,-0.459385,0.046247609,-0.000649099,0.278906701,-0.019477641,0.479037529,-0.365415488
2705250,1.254621,0.313897,-0.031127,-0.344325,-0.148994,-0.48849,0.048758465,-0.00323407,0.29274368,-0.052722742,0.500330361,-0.355346648
2705260,1.269044,0.304852,-0.034059,-0.328987,-0.106833,-0.554584,0.060699881,0.001775367,0.304177827,-0.101148575,0.557017763,-0.326663935
2705322,1.292511,0.240802,-0.042366,-0.238237,0.167514,-1.041496,0.120510709,0.02726444,0.309617878,-0.428367464,0.98134462,-0.151643594
2705332,1.306444,0.241535,-0.034059,-0.217147,0.207841,-1.242203,0.118892699,0.022008561,0.323508688,-0.498761099,1.170670091,-0.11911296
2705342,1.314999,0.241291,-0.039678,-0.174967,0.256111,-1.161557,0.114776285,0.030265773,0.332264406,-0.516375805,1.083335277,-0.071844729
2705352,1.314266,0.232734,-0.041633,-0.15196,0.304992,-1.224619,0.117807951,0.035551782,0.32968075,-0.568636064,1.13621155,-0.038470727
2705362,1.308888,0.222956,-0.047985,-0.13087,0.355707,-1.281617,0.120284833,0.046195305,0.322345374,-0.622308232,1.182737794,-0.007767609
2705372,1.318422,0.209021,-0.044565,-0.127675,0.397867,-1.326488,0.133460651,0.048192869,0.328073074,-0.670664156,1.218345732,0.003568829
2705382,1.251199,0.196553,-0.046519,-0.107224,0.446749,-1.37621,0.124970857,0.053500058,0.260085737,-0.722280932,1.257897379,0.032249942
2705392,1.312311,0.190442,-0.04432,-0.093803,0.491353,-1.435634,0.146825856,0.054791481,0.317510015,-0.772803303,1.307947832,0.057613183
2705513,1.217221,0.125414,-0.067776,0.017398,0.722929,-1.996523,0.18387421,0.092421528,0.208138136,-1.077541565,1.815260426,0.229710432
2705523,1.175421,0.112457,-0.063133,0.007172,0.724151,-2.00865,0.190937846,0.093237192,0.163226738,-1.086584813,1.825042248,0.21834644
2705533,1.153665,0.104879,-0.071196,-0.008805,0.725373,-2.00198,0.194964075,0.105940864,0.139200136,-1.093228616,1.816189891,0.201178805
2705543,1.160021,0.103412,-0.070708,-0.021586,0.716207,-1.966205,0.201963508,0.110080207,0.143868643,-1.082937889,1.781207511,0.184189726
2705553,1.181288,0.107323,-0.074373,-0.049067,0.721095,-1.909206,0.206862053,0.117897482,0.164387901,-1.085050015,1.722050847,0.157036512
2705563,1.187399,0.090455,-0.081702,-0.077187,0.724762,-1.872218,0.226264627,0.13245591,0.164488497,-1.089960112,1.682765574,0.1293252
2705573,1.166865,0.06552,-0.089765,-0.102111,0.726595,-1.847357,0.24567156,0.147621907,0.136564037,-1.094378302,1.656058249,0.104412859
2705583,1.149265,0.042051,-0.098805,-0.134066,0.736371,-1.841293,0.260873964,0.160028912,0.112958345,-1.111200733,1.646189512,0.076608576
2705644,1.16051,-0.062336,-0.127391,-0.336017,0.748591,-1.873431,0.360059232,0.213450982,0.091647256,-1.183724435,1.663828296,-0.116238904
2705654,1.152443,-0.09705,-0.133988,-0.36925,0.749813,-1.943769,0.394360153,0.230166701,0.070980726,-1.206385381,1.731739284,-0.150054618
2705664,1.121887,-0.125897,-0.141074,-0.401843,0.747369,-2.061404,0.417609073,0.244732211,0.029607292,-1.23493953,1.84666737,-0.184847642
2705674,1.077887,-0.1611,-0.142784,-0.422933,0.755923,-2.19056,0.444644069,0.253733889,-0.027327583,-1.272365302,1.971773817,-0.205035539
2705684,1.036576,-0.176013,-0.148159,-0.442745,0.755312,-2.30395,0.452757379,0.262368905,-0.076098067,-1.297521678,2.083184818,-0.226899677
2705694,1.006754,-0.198992,-0.15158,-0.44594,0.761423,-2.373683,0.472407724,0.271081952,-0.117122066,-1.314882969,2.15203944,-0.229798785
2705704,0.960065,-0.215372,-0.152801,-0.452331,0.757757,-2.454329,-0.010471946,0.002935345,-0.004339531,-0.896133453,-2.438966595,-0.225647133
2705714,0.918753,-0.231017,-0.15158,-0.450414,0.753479,-2.52588,-0.032642035,0.012922806,-0.041240424,-0.939168768,-2.494717312,-0.212180841
2705776,0.775508,-0.279177,-0.161353,-0.309815,0.612945,-2.357311,-0.118095799,0.037155724,-0.16930145,-0.9202838,-2.275361497,-0.066406643
2705785.875,0.779419,-0.283578,-0.170637,-0.29192,0.576284,-2.262718,-0.130567265,0.035957374,-0.164125188,-0.89220388,-2.17681671,-0.051522136
2705795.75,0.788464,-0.306068,-0.177967,-0.273387,0.547567,-2.168124,-0.154506265,0.046206429,-0.150872134,-0.857343444,-2.082963349,-0.039467147
2705805.625,0.775997,-0.351295,-0.18603,-0.252297,0.518238,-2.104456,-0.201596988,0.068457368,-0.154506697,-0.839851593,-2.013744158,-0.021052929
2705815.5,0.752775,-0.375008,-0.185541,-0.24974,0.487076,-2.060191,-0.229458319,0.08437858,-0.174193849,-0.838874933,-1.959575082,-0.018825479
2705825.375,0.718797,-0.413389,-0.180166,-0.24271,0.46569,-2.079595,-0.268606634,0.112846128,-0.203046044,-0.864903022,-1.962757767,-0.003923823
2705835.25,0.685063,-0.413144,-0.179922,-0.232485,0.454692,-2.125072,-0.279870659,0.114322265,-0.23778347,-0.896512367,-1.993172138,0.015984313
2705845.125,0.705841,-0.414122,-0.179433,-0.218425,0.440027,-2.152359,-0.275816094,0.115829796,-0.217431351,-0.920559318,-2.006301614,0.0361508
2705907,0.634952,-0.479395,-0.201423,-0.274026,0.370371,-2.19723,-0.359423902,0.137696978,-0.275149095,-1.013523298,-2.003208049,0.003554514
2705917,0.641063,-0.507508,-0.206309,-0.277221,0.368538,-2.208751,-0.387317324,0.153646584,-0.266878208,-1.02248797,-2.011403,0.005389276
2705927,0.643263,-0.521932,-0.203133,-0.295755,0.371593,-2.232399,-0.40077528,0.16843083,-0.266192432,-1.03783893,-2.032735576,-0.005840043
2705937,0.567485,-0.551512,-0.214372,-0.314927,0.378315,-2.266356,-0.450381472,0.177132061,-0.338229021,-1.056150854,-2.064682994,-0.017328598
2705947,0.586307,-0.556646,-0.208752,-0.327709,0.385647,-2.323961,-0.45231092,0.189019087,-0.324074944,-1.086196648,-2.115825142,-0.019296079
2705957,0.556241,-0.572781,-0.207286,-0.339213,0.396645,-2.370651,-0.474895038,0.201815681,-0.356420367,-1.10677649,-2.160311404,-0.021893298
2705967,0.515418,-0.594538,-0.210463,-0.34816,0.404588,-2.418554,-0.506254838,0.213306429,-0.398641347,-1.130120114,-2.20378536,-0.021654183
2705977,0.491462,-0.600405,-0.206309,-0.359024,0.411921,-2.43917,-0.512725188,0.218707167,-0.422189892,-1.138027055,-2.225336178,-0.030012493
2706039,0.260461,-0.674478,-0.193848,-0.266996,0.400311,-2.607133,-0.609222173,0.260786027,-0.651895785,-1.226063483,-2.348889202,0.090366424
2706049,0.182239,-0.687191,-0.193115,-0.241432,0.398478,-2.677472,-0.635284847,0.264911015,-0.73737623,-1.261892341,-2.4034417,0.130484309
2706059,0.096927,-0.70137,-0.202888,-0.226733,0.397256,-2.712035,-0.667819019,0.259497386,-0.829245425,-1.278363709,-2.430215817,0.155535634
2706069,0.00306,-0.685235,-0.210707,-0.210117,0.392368,-2.715673,-0.673773845,0.235259541,-0.931915035,-1.279605994,-2.429750386,0.178614689
2706079,-0.061718,-0.680835,-0.218037,-0.186471,0.381981,-2.657462,-0.683174114,0.219393438,-1.005019033,-1.248682185,-2.375622372,0.199990867
2706089,-0.147274,-0.695258,-0.236606,-0.158351,0.374648,-2.566507,-0.714867949,0.20188156,-1.096246392,-1.195946575,-2.296376706,0.220817022
2706099,-0.224763,-0.695502,-0.241248,-0.125758,0.353263,-2.457967,-0.724497084,0.186858997,-1.180637002,-1.144759037,-2.193783405,0.243007638
2706109,-0.29223,-0.692813,-0.249311,-0.108502,0.335543,-2.19056,-0.733322233,0.1708738,-1.246139895,-1.00308517,-1.966814165,0.21994791
2706172,-0.626632,-0.676923,-0.288403,0.034653,0.102135,-1.163376,-0.774905486,0.087243914,-1.570945434,-0.583795231,-0.989471521,0.212615483
2706181.875,-0.626387,-0.689635,-0.293778,0.053187,0.045921,-0.894149,-0.018098879,-0.010270596,-0.023358016,0.236141051,-0.842315787,0.197943296
2706191.75,-0.618809,-0.708459,-0.290358,0.060856,-0.019458,-0.653422,-0.019259588,-0.00466911,-0.015747101,0.211891991,-0.597750967,0.169817379
2706201.625,-0.606343,-0.704059,-0.287426,0.089615,-0.072005,-0.471512,-0.015580216,-0.008566242,-0.027555405,0.220944561,-0.410304743,0.135545761
2706211.5,-0.580431,-0.69648,-0.277653,0.126043,-0.135551,-0.257465,-0.016148827,-0.00659834,-0.051964451,0.234666425,-0.188093743,0.10050647
2706221.375,-0.554276,-0.69208,-0.2713,0.154162,-0.185044,-0.050088,-0.01144488,-0.005141266,-0.072830715,0.236499763,0.023027619,0.063667911
2706231.25,-0.527631,-0.681079,-0.26397,0.173335,-0.232703,0.148194,-0.007488126,-0.005088139,-0.098966551,0.233106941,0.225054525,0.034187499
2706241.125,-0.496831,-0.665433,-0.254441,0.177809,-0.27303,0.382858,0.007149341,-0.00149165,-0.131478841,0.206484508,0.458338782,-0.005601672
2706303,-0.227208,-0.67619,-0.248089,0.187395,-0.447781,1.729597,0.233841847,0.011055499,-0.281946862,0.014509015,1.776368137,-0.267275553
2706313,-0.177096,-0.664455,-0.247112,0.177809,-0.472222,1.893922,0.271497383,0.007715017,-0.321650953,-0.011395546,1.938189004,-0.291279464
2706323,-0.133585,-0.652476,-0.2476,0.157358,-0.480776,2.060066,0.304477349,0.002933679,-0.358002663,-0.054506699,2.095923527,-0.322354796
2706333,-0.08934,-0.64172,-0.244668,0.124764,-0.488719,2.198318,0.338591825,0.001779881,-0.395846847,-0.101086346,2.227447627,-0.339518727
2706343,-0.04754,-0.638786,-0.241003,0.081307,-0.491774,2.377196,0.375331841,0.003964783,-0.427723545,-0.167398462,2.395354666,-0.365741842
2706353,0.002082,-0.65761,-0.240759,0.032097,-0.496052,2.523936,0.431619296,0.010336108,-0.448621644,-0.230286534,2.534119768,-0.377565688
2706363,0.060505,-0.696236,-0.237339,-0.013278,-0.49483,2.619742,0.505585238,0.026402215,-0.46295092,-0.282307716,2.623596571,-0.380952181
2706373,0.135794,-0.712126,-0.245646,-0.035007,-0.508272,2.633082,0.575546743,0.023464853,-0.495915925,-0.294295447,2.641104836,-0.361444558
2706435,0.405662,-0.699414,-0.230986,-0.272748,-0.559597,2.327474,0.779423432,0.030057229,-0.685847474,-0.384316315,2.376677565,-0.091543536
2706445,0.458462,-0.732906,-0.221946,-0.283612,-0.577928,2.284422,0.841323746,0.050241996,-0.706318653,-0.372464701,2.343202967,-0.060747973
2706455,0.498062,-0.757597,-0.217548,-0.259966,-0.607257,2.200743,0.888378644,0.063113847,-0.724054119,-0.318581682,2.275325892,-0.031795184
2706465,0.54524,-0.740973,-0.209241,-0.231846,-0.635975,2.10615,0.91439066,0.064473699,-0.776746101,-0.259161409,2.197023921,-0.002418009
2706475,0.556729,-0.738284,-0.2024,-0.189027,-0.654916,1.972143,0.921491735,0.070120767,-0.795275152,-0.185713748,2.078224388,0.022090353
2706485,0.551352,-0.739995,-0.204599,-0.145569,-0.681801,1.861178,0.92049291,0.069165411,-0.796649743,-0.111751901,1.983815071,0.044897226
2706495,0.568952,-0.713104,-0.203377,-0.104029,-0.696465,1.790233,0.917808596,0.0606052,-0.83404733,-0.055839459,1.922318326,0.048927809
2706505,0.589974,-0.704548,-0.198735,-0.078465,-0.714796,1.769617,0.926950412,0.061497591,-0.855314878,-0.020549194,1.909370618,0.050159537
2706575,0.774775,-0.691591,-0.197269,0.122208,-0.712352,1.613781,1.055683107,0.054763101,-0.995136781,0.163678034,1.760191889,-0.040041225
2706584.875,0.755708,-0.690858,-0.200934,0.1139,-0.689744,1.601654,1.042126946,0.050777274,-0.987878672,0.146721774,1.740845608,-0.044100135
2706594.75,0.741041,-0.697947,-0.198491,0.109426,-0.662248,1.56891,1.035463372,0.055200084,-0.979047393,0.134271812,1.700489078,-0.048301432
2706604.625,0.745686,-0.688657,-0.195314,0.1139,-0.630475,1.491901,1.032211236,0.054318905,-0.99425081,0.135791994,1.617201671,-0.049596557
2706614.5,0.809731,-0.623385,-0.179677,0.123486,-0.613978,1.39367,1.032611767,0.044648411,-1.090974904,0.155874293,1.519452185,-0.038757034
2706624.375,0.850797,-0.601383,-0.174547,0.131794,-0.591981,1.324544,1.046340387,0.040939149,-1.139568925,0.164637637,1.446929076,-0.038970097
2706634.25,0.859353,-0.591849,-0.176501,0.13499,-0.565097,1.283918,1.046223046,0.035240859,-1.155244451,0.159885299,1.399377238,-0.04671603
2706644.125,0.852997,-0.587204,-0.175768,0.140742,-0.537601,1.268759,1.038446687,0.034350274,-1.154127696,0.149670072,1.375469283,-0.065235469
2706709,0.87622,-0.486729,-0.162575,0.122847,-0.403177,1.163857,0.985647182,0.010166062,-1.243912938,0.07515936,1.230164833,-0.115116244
2706718.875,0.888686,-0.467171,-0.156955,0.12093,-0.389735,1.154762,0.009821617,0.011047612,0.016084597,0.057063942,1.219889659,0.092766577
2706728.75,0.888198,-0.464727,-0.160376,0.115817,-0.370182,1.173559,0.028160534,-0.000907451,0.014787413,0.086568993,1.230088489,0.084125714
2706738.625,0.870353,-0.467171,-0.161353,0.100479,-0.351851,1.23177,0.028266168,-0.001563722,0.000498104,0.11102109,1.279113689,0.051913177
2706748.5,0.853975,-0.464727,-0.160376,0.100479,-0.347574,1.274216,-0.002029097,0.00146007,-0.014627635,0.12516967,1.317992855,0.041922761
2706758.375,0.854709,-0.450792,-0.157932,0.089615,-0.348796,1.31363,-0.001341359,-0.001714843,-0.020878619,0.13498713,1.355072825,0.029485399
2706768.25,0.875486,-0.432457,-0.150847,0.101118,-0.35674,1.339703,-0.000715572,-0.002431673,-0.011949806,0.13888426,1.382390989,0.044707071
2706778.125,0.910442,-0.419012,-0.144006,0.097284,-0.361628,1.38033,1.19E-16,3.68E-17,0.012528231,0.138459522,1.422924219,0.040810822
2706839,0.982065,-0.362784,-0.136432,0.105592,-0.372626,1.534347,0.082635374,-0.014336654,0.052446408,0.177251929,1.572112226,0.035572812
2706849,1.022643,-0.382586,-0.122749,0.104314,-0.386679,1.542836,0.088764411,0.00128929,0.095151719,0.166544909,1.58463059,0.04420033
2706859,1.027287,-0.394809,-0.121528,0.103035,-0.393401,1.50888,0.080949046,0.003960914,0.104261448,0.14912767,1.554654564,0.05394013
2706869,1.017509,-0.393832,-0.122749,0.120291,-0.409898,1.448849,0.076044186,0.001155564,0.095313413,0.123219077,1.502984926,0.086620384
2706879,1.002598,-0.389676,-0.122016,0.14905,-0.423952,1.345161,0.070646702,0.000927802,0.080252851,0.0909556,1.409137155,0.132169865
2706889,1.001131,-0.362784,-0.118596,0.182921,-0.438005,1.21843,0.090193551,-0.002316043,0.067614294,0.053916285,1.29359399,0.183269636
2706899,1.024598,-0.31927,-0.118351,0.193147,-0.444115,1.112923,0.133304102,-0.0134756,0.071349513,0.019335304,1.195833587,0.206759953
2706909,1.028998,-0.309002,-0.119573,0.207207,-0.442893,1.053499,0.143645672,-0.017872593,0.07129049,0.00951203,1.139020833,0.226914428
2706971,1.062732,-0.217816,-0.105402,0.212958,-0.417841,0.769113,0.233472655,-0.029704385,0.064218429,-0.051239246,0.861769978,0.2573015
2706980.875,1.061265,-0.223194,-0.109556,0.19762,-0.409898,0.783666,0.220518615,-0.028968585,0.067067871,-0.050026106,0.87353447,0.235875715
2706990.75,1.047576,-0.225884,-0.106379,0.168222,-0.40501,0.818229,0.207252774,-0.022591489,0.056546952,-0.051058764,0.905028645,0.200366146
2707000.625,1.01482,-0.226372,-0.104425,0.145215,-0.392179,0.861281,0.188219998,-0.018393163,0.027737038,-0.039638418,0.942042192,0.166379175
2707010.5,0.987931,-0.232484,-0.105402,0.126043,-0.396456,0.897663,-0.003733654,-0.002951818,0.020364346,0.039336574,0.980958559,0.122621365
2707020.375,0.98622,-0.216838,-0.094896,0.114539,-0.395845,0.92313,-0.004854411,0.004659575,0.014203422,0.032378327,1.004923599,0.105174371
2707030.25,0.995754,-0.209749,-0.094896,0.116456,-0.401955,0.946778,-0.004609218,0.004976212,0.021998001,0.04804539,1.028857741,0.103255955
2707040.125,1.00382,-0.191658,-0.093919,0.119652,-0.412342,0.960118,2.24E-16,-1.48E-17,0.026259304,0.075958838,1.043611974,0.106176276
2707101,1.041465,-0.132987,-0.077304,0.094727,-0.432506,1.209335,0.064041552,-0.009880266,0.050767271,0.159470104,1.276424098,0.061940256
2707111,1.043176,-0.122475,-0.074128,0.086419,-0.434339,1.199633,0.072366733,-0.010266452,0.050413685,0.151054491,1.268670949,0.053800641
2707121,1.062732,-0.087271,-0.06631,0.090254,-0.438005,1.174165,0.107953392,-0.017350795,0.062759409,0.136725584,1.247569973,0.059438106
2707131,1.094265,-0.067714,-0.060446,0.088976,-0.446559,1.155368,0.131222717,-0.017628276,0.090011302,0.120114413,1.234648531,0.058501439
2707141,1.10551,0.000981,-0.061423,0.077472,-0.435561,1.155975,0.190729355,-0.047182214,0.08964318,0.127312703,1.230384354,0.044037647
2707151,1.099398,-0.055246,-0.062889,0.064051,-0.422118,1.164464,0.136461043,-0.021877827,0.093884296,0.140113322,1.232055017,0.0259082
2707161,1.08351,-0.048646,-0.067531,0.039127,-0.409287,1.175378,0.134259124,-0.027071674,0.078036364,0.151450156,1.235965081,-0.003658228
2707171,1.078865,-0.041801,-0.068997,0.032736,-0.390346,1.170527,0.138786336,-0.031450764,0.072476946,0.164866028,1.223206825,-0.012623708
2707233,1.153177,0.043273,-0.048963,-0.046511,-0.306025,1.017117,0.231609537,-0.04829828,0.130535899,0.159687661,1.047151654,-0.09118569
2707242.875,1.135576,0.027139,-0.054826,-0.056097,-0.30297,1.008021,0.2061877,-0.044738471,0.117479471,0.158206586,1.037166876,-0.101486841
2707252.75,1.104532,0.010515,-0.059713,-0.058653,-0.291361,0.977703,0.177929965,-0.039173369,0.091088228,0.156531387,1.00432764,-0.105159308
2707262.625,1.064932,-0.003664,-0.070463,-0.070796,-0.288917,0.922524,0.14724619,-0.039886265,0.056307848,0.134303044,0.953076671,-0.114643743
2707272.5,1.050998,0.006359,-0.068997,-0.072074,-0.282195,0.832175,0.147081745,-0.03978511,0.04220052,0.102285568,0.868683723,-0.110770764
2707282.375,1.065176,0.027139,-0.066798,-0.068879,-0.274252,0.739401,0.160741187,-0.0437659,0.05453555,0.070876981,0.78184446,-0.101823418
2707292.25,1.076176,0.045474,-0.056781,-0.079743,-0.262032,0.677552,0.174380314,-0.039737349,0.063700709,0.054513173,0.720422736,-0.110071903
2707302.125,1.086198,0.065275,-0.052139,-0.081022,-0.245534,0.61449,0.195441381,-0.044188844,0.07081997,0.041165672,0.656659075,-0.107488218
2707364,1.047332,0.111724,-0.015978,-0.136622,-0.155104,0.490791,0.236856546,-0.03281188,0.02589679,0.060888119,0.503646545,-0.161961176
2707373.875,1.055887,0.132992,-0.008893,-0.131509,-0.144716,0.459866,0.250066995,-0.035100428,0.033875124,0.059309067,0.471276596,-0.155225257
2707383.75,1.064687,0.151327,0.001369,-0.126397,-0.131885,0.459866,0.262607489,-0.03402483,0.04227624,0.073469875,0.465462401,-0.150975242
2707393.625,1.06591,0.160128,0.012119,-0.135983,-0.123942,0.521716,0.266482441,-0.028731792,0.044085038,0.109406999,0.51641387,-0.165491402
2707403.5,1.072998,0.169418,0.011631,-0.157712,-0.112944,0.593873,0.267037596,-0.034209092,0.052465252,0.151842833,0.574714882,-0.192252752
2707413.375,1.07471,0.16844,0.016028,-0.165381,-0.101945,0.673914,0.260530779,-0.03105025,0.055836214,0.199838372,0.640315972,-0.204850724
2707423.25,1.062976,0.15915,0.011631,-0.169855,-0.094613,0.737582,0.241705162,-0.032140306,0.046865605,0.237923853,0.692923745,-0.212316913
2707433.125,1.042687,0.149127,0.004545,-0.184554,-0.092169,0.783666,0.227774161,-0.034396713,0.027809076,0.259816688,0.732248738,-0.230205945
2707494,1.024598,0.206332,0.030199,-0.197335,-0.114777,0.793368,0.281976333,-0.039817268,0.006076472,0.246479641,0.750439663,-0.240074456
2707504,1.03682,0.220267,0.03362,-0.198613,-0.122109,0.830356,0.290475818,-0.044242314,0.018974968,0.260270888,0.786099758,-0.24115359
2707514,1.039998,0.224178,0.036063,-0.193501,-0.125775,0.850972,0.288952654,-0.045259504,0.023528259,0.270219833,0.805759886,-0.234835219
2707524,1.035843,0.214644,0.037285,-0.181997,-0.130663,0.858855,0.274291841,-0.041075947,0.021523221,0.273473881,0.814897167,-0.221319413
2707534,1.015065,0.209266,0.038262,-0.16602,-0.135551,0.83642,0.261738102,-0.038423429,0.002811049,0.262701593,0.797207601,-0.202442696
2707544,1.000887,0.217577,0.028978,-0.161546,-0.137995,0.791549,0.006614385,0.004502474,0.024641518,-0.005343933,-0.803549021,-0.161151988
2707554,1.001376,0.229312,0.034353,-0.147487,-0.137384,0.74789,0.001877479,0.009104649,0.027828583,-0.010153379,-0.76127072,-0.142583417
2707564,1.00162,0.232001,0.037774,-0.132788,-0.131274,0.697562,1.33E-16,-1.72E-16,0.028831358,-0.013331806,-0.709591764,-0.133266845
2707625,0.989398,0.26427,0.043637,-0.127036,-0.073227,0.555066,-0.023981455,-0.002464767,0.024729251,-0.047341707,-0.559349207,-0.120357096
2707634.875,0.968131,0.26207,0.037041,-0.114893,-0.055508,0.518077,0.009842842,-0.00449858,0.003600137,-0.048702701,-0.520227208,-0.108060245
2707644.75,0.961042,0.276738,0.033864,-0.093803,-0.045732,0.496248,0.010089813,0.00340247,0.000609332,-0.041615686,-0.498390113,-0.083832729
2707654.625,0.963487,0.290917,0.038262,-0.077826,-0.031678,0.478664,0.011066262,0.000342279,0.007115337,-0.05327175,-0.47870584,-0.064671834
2707664.5,0.973998,0.316831,0.041194,-0.064405,-0.010293,0.480483,0.010409509,0.002890499,0.025004497,-0.069834159,-0.477902499,-0.043014592
2707674.375,0.986465,0.343722,0.047547,-0.057375,0.008649,0.516258,-0.001020371,0.000847407,0.045713616,-0.090111299,-0.510895023,-0.027481778
2707684.25,0.99722,0.370124,0.050234,-0.05418,0.028202,0.573257,-0.012113902,0.001296422,0.064807274,-0.114478735,-0.564834965,-0.014508419
2707694.125,0.997954,0.382592,0.049746,-0.052902,0.053253,0.61449,-0.023431191,0.003408319,0.06967418,-0.142421241,-0.602445072,-0.002930748
2707754,0.959331,0.379169,0.028489,-0.046511,0.22556,0.753347,-0.025401663,0.019636007,0.031438754,-0.316916623,-0.718147587,0.066333905
2707764,0.971798,0.403127,0.027023,-0.046511,0.245724,0.80792,-0.036514541,0.022090947,0.051575795,-0.341136593,-0.770117309,0.076311455
2707774,0.983531,0.42244,0.031665,-0.045872,0.262832,0.861887,-0.044376317,0.017945125,0.069813147,-0.361948187,-0.821978833,0.085897667
2707784,0.985976,0.424151,0.031665,-0.044594,0.286051,0.886748,-0.039514617,0.015386192,0.072966577,-0.384597032,-0.844371932,0.096213196
2707794,0.980842,0.422684,0.028,-0.047789,0.306215,0.905545,-0.03685651,0.013864354,0.067682617,-0.4054334,-0.861412351,0.098263329
2707804,0.974242,0.404594,0.025069,-0.045872,0.315991,0.90979,-0.024799479,0.007618972,0.054892967,-0.413558051,-0.865584731,0.096980456
2707814,0.967642,0.392126,0.016761,-0.042676,0.326378,0.908577,-0.016486463,0.00776257,0.044051105,-0.4211187,-0.864308974,0.097391181
2707824,0.962998,0.388948,0.010898,-0.04012,0.331266,0.900088,-0.014548242,0.013320961,0.038448536,-0.423756469,-0.855373308,0.10135159
2707961,0.963976,0.439552,-0.020132,0.103035,0.204786,0.579927,-0.053008871,0.041402878,0.057514467,-0.216823978,-0.556634822,0.17892423
2707971,0.953465,0.426596,-0.023064,0.108148,0.186455,0.528386,-0.040361431,0.034245681,0.043460488,-0.190660912,-0.509384043,0.172712291
2707981,0.943198,0.418773,-0.027462,0.113261,0.160792,0.486546,-0.030538002,0.029544277,0.031475652,-0.158678305,-0.472330232,0.164725466
2707991,0.934153,0.418284,-0.027706,0.129238,0.146128,0.414995,0.011716753,-0.00295254,0.023828577,-0.052511279,-0.424312379,0.165765719
2708001,0.920953,0.425862,-0.030882,0.133073,0.120465,0.360422,0.012303303,0.003925531,0.015036841,-0.02682781,-0.36761489,0.162061159
2708011,0.927553,0.453487,-0.027706,0.136907,0.114355,0.316157,0.003935021,9.23E-05,0.032839366,-0.019941679,-0.322837841,0.164784402
2708021,0.950287,0.488935,-0.029172,0.148411,0.109467,0.290084,-0.003714934,-0.000898079,0.069083353,-0.009450925,-0.296423191,0.173785926
2708031,0.970331,0.494557,-0.030394,0.152884,0.102746,0.275531,0.000328873,3.84E-05,0.089519418,-0.002462641,-0.28137833,0.175122131
2708091,1.016287,0.404349,-0.058247,0.189312,0.012315,0.078462,0.082494919,0.029078586,0.091823757,0.078126504,-0.078674242,0.172781918
2708101,1.026554,0.414372,-0.052139,0.180365,-0.016403,0.034197,0.061699959,0.016319459,0.106418788,0.094407442,-0.033016688,0.154813306
2708111,1.03902,0.423173,-0.052627,0.175891,-0.030456,0.006911,0.042712625,0.009598373,0.12227049,0.101021799,-0.005383716,0.147236495
2708121,1.055398,0.428063,-0.056537,0.161831,-0.045121,-0.032503,0.028463217,0.006426541,0.139933265,0.103613764,0.034592891,0.131716142
2708131,1.072265,0.436374,-0.058247,0.148411,-0.057341,-0.059183,0.01009366,0.006268059,0.15906257,0.105510364,0.062409798,0.11742667
2708141,1.096221,0.444442,-0.05165,0.127321,-0.061618,-0.08647,-0.004357611,-0.005996136,0.183994068,0.097642354,0.089900868,0.09933922
2708151,1.111376,0.448598,-0.056292,0.108148,-0.065895,-0.13316,0.008146697,0.009390862,0.199754563,0.091315123,0.137901027,0.080091084
2708161,1.121399,0.451776,-0.055804,0.099201,-0.078116,-0.184095,0.009098954,0.0085617,0.210204637,0.095030491,0.189777669,0.069192189
2708222,1.139488,0.411194,-0.060202,-0.063766,-0.040843,-0.741345,0.044810992,0.011612619,0.212020961,-0.045776826,0.742585282,-0.042405696
2708232,1.140465,0.410461,-0.06069,-0.09636,-0.0329,-0.817747,0.038243791,0.009011102,0.212962546,-0.07041819,0.818496038,-0.064678668
2708242,1.14731,0.419017,-0.058736,-0.12384,-0.022513,-0.921436,0.027460262,0.001530627,0.222533841,-0.097281738,0.921542343,-0.078634953
2708252,1.152443,0.427818,-0.062401,-0.141096,-0.01457,-1.02088,0.014796814,0.004511362,0.230775242,-0.117452814,1.02020651,-0.087748813
2708262,1.149999,0.434663,-0.059713,-0.153877,-0.006015,-1.101527,0.006022883,-0.005685295,0.230823573,-0.135061187,1.100597842,-0.08671164
2708272,1.144865,0.43393,-0.061912,-0.173689,0.004983,-1.149429,0.012976258,0.011660621,0.225781325,-0.155728913,1.146586109,-0.111662546
2708282,1.139243,0.432707,-0.056781,-0.178163,0.013537,-1.210066,0.008686181,0.004842938,0.219932432,-0.168097241,1.206681502,-0.108848979
2708292,1.134599,0.421951,-0.053605,-0.194779,0.017814,-1.247054,0.017219603,0.002658407,0.211580559,-0.180887705,1.243380252,-0.121181947
2708354,1.114799,0.385526,-0.031615,-0.22226,0.061807,-1.553876,0.048815876,-0.006041708,0.178977151,-0.253457589,1.544876385,-0.129870866
2708363.875,1.103554,0.38137,-0.025996,-0.210117,0.058752,-1.592077,0.050580546,-0.004279114,0.166779155,-0.247576771,1.582641694,-0.127519162
2708373.75,1.095732,0.375258,-0.023797,-0.191584,0.055697,-1.621789,0.054986747,0.000100373,0.157147323,-0.238865461,1.612091297,-0.118790093
2708383.625,1.098176,0.362057,-0.014757,-0.162825,0.049587,-1.635129,0.070191356,-0.002900995,0.15427827,-0.222551863,1.625706284,-0.100833749
2708393.5,1.097932,0.355456,-0.010115,-0.130231,0.032479,-1.660596,0.077922592,-0.00325772,0.151444056,-0.195725988,1.652458684,-0.081643806
2708403.375,1.100132,0.349833,-0.00816,-0.097638,0.020258,-1.685457,0.085723451,-0.00213808,0.151254555,-0.173515592,1.678422165,-0.059162837
2708413.25,1.105265,0.341522,-0.007671,-0.074631,0.008038,-1.727903,0.097165023,-0.000314292,0.152764373,-0.156482362,1.721876575,-0.044017105
2708423.125,1.105999,0.338588,-0.008893,-0.039481,9.50E-05,-1.752157,0.100067107,0.001119948,0.152362802,-0.137686762,1.747128183,-0.014084648
2708485,1.152932,0.281872,-0.013779,-0.06824,0.102135,-1.701223,0.170616351,0.012023756,0.174580509,-0.239218219,1.688785672,-0.005054518
2708494.875,1.155377,0.25987,-0.019399,-0.077826,0.132075,-1.681212,0.192245157,0.02113853,0.168503193,-0.268847387,1.666632639,-0.005586433
2708504.75,1.160999,0.251069,-0.018177,-0.107224,0.173624,-1.673936,0.20331347,0.022685601,0.170228063,-0.317227112,1.65609972,-0.02011684
2708514.625,1.159777,0.238113,-0.021109,-0.141096,0.212118,-1.672117,0.215263847,0.028737013,0.164071192,-0.364715459,1.651134609,-0.040181175
2708524.5,1.158799,0.212688,-0.023797,-0.164742,0.253056,-1.664234,0.238749394,0.035756798,0.153402698,-0.410055138,1.640170299,-0.050480146
2708534.375,1.163199,0.190931,-0.022331,-0.184554,0.284829,-1.65817,0.261167195,0.038814456,0.149030186,-0.445498682,1.631719607,-0.061135397
2708544.25,1.167354,0.177485,-0.021354,-0.203087,0.319046,-1.660596,0.275960238,0.042078586,0.147496239,-0.483340165,1.631595491,-0.069944229
2708554.125,1.18471,0.156705,-0.019888,-0.206922,0.343487,-1.676968,0.30180695,0.042370631,0.155684675,-0.508461245,1.646316992,-0.06425909
2708616,1.213066,-0.009776,-0.023797,-0.003053,0.338598,-2.069287,0.472223639,0.060460529,0.116037789,-0.45598754,2.043100392,0.120094824
2708625.875,1.202554,-0.035934,-0.02795,0.053187,0.315991,-2.165699,0.499386554,0.06852279,0.09276085,-0.423445129,2.141760958,0.162743818
2708635.75,1.183732,-0.069181,-0.039922,0.104953,0.295827,-2.280302,0.529869872,0.084311714,0.058173274,-0.39711553,2.258182235,0.20302268
2708645.625,1.165399,-0.090449,-0.048718,0.173335,0.282996,-2.375502,0.550420744,0.096174294,0.027860304,-0.370112927,2.355312271,0.262034417
2708655.5,1.155865,-0.092405,-0.050917,0.232131,0.271998,-2.488286,0.557798546,0.100401068,0.012884757,-0.350362904,2.469515536,0.313326961
2708665.375,1.150488,-0.088738,-0.056048,0.274311,0.267109,-2.564688,0.561780438,0.107431704,0.003742804,-0.340461555,2.546446829,0.352012435
2708675.25,1.138265,-0.093139,-0.059957,0.297957,0.278108,-2.608953,0.570063636,0.113747889,-0.015111278,-0.35025693,2.589451523,0.380551025
2708685.125,1.122376,-0.098517,-0.06631,0.304348,0.301937,-2.618048,0.567468204,0.119841584,-0.031780844,-0.369683893,2.596920454,0.396619421
2708747,1.091821,-0.203637,-0.07364,0.232131,0.575062,-2.444021,0.655051646,0.139898593,-0.111011981,-0.63774628,2.397926114,0.448385759
2708756.875,1.054665,-0.224906,-0.088543,0.219988,0.619667,-2.448266,0.662812224,0.160840342,-0.160029064,-0.690442921,2.396515323,0.454302977
2708766.75,1.033887,-0.241285,-0.090987,0.20465,0.666104,-2.437957,0.673914736,0.169735883,-0.192257422,-0.744462351,2.380062496,0.458572587
2708776.625,1.003087,-0.252041,-0.099783,0.177809,0.706431,-2.424011,0.674004593,0.183954702,-0.230881466,-0.797991262,2.359519985,0.449850544
2708786.5,1.007243,-0.260842,-0.097584,0.169501,0.73576,-2.396724,0.689141421,0.189265533,-0.237528816,-0.831647317,2.327584474,0.452849374
2708796.375,1.011643,-0.29629,-0.100516,0.159275,0.752257,-2.371257,0.726968918,0.202366682,-0.257115952,-0.855297009,2.298104537,0.448666292
2708806.25,1.013598,-0.326359,-0.103447,0.178448,0.7657,-2.368225,0.758908051,0.214994538,-0.277207981,-0.864717982,2.293180015,0.469273972
2708816.125,1.011643,-0.344205,-0.108334,0.198259,0.768144,-2.410064,0.772867837,0.221349723,-0.287739862,-0.862351791,2.336072642,0.486697359
2708877,0.740797,-0.399699,-0.166484,0.268559,0.720484,-2.641696,0.68711798,0.266812599,-0.560754822,-0.822218803,2.573237217,0.521713859
2708887,0.739819,-0.401899,-0.173325,0.250665,0.702765,-2.581666,0.690697152,0.278019364,-0.570419749,-0.81517962,2.511143889,0.501347661
2708897,0.738841,-0.410944,-0.179922,0.227018,0.696655,-2.486467,0.699610709,0.289525544,-0.583043485,-0.816069054,2.412562683,0.482655261
2708907,0.735419,-0.42439,-0.183831,0.210402,0.685656,-2.39248,0.710892797,0.298537327,-0.599689233,-0.808792245,2.316476123,0.467062285
2708917,0.723441,-0.450303,-0.189206,0.187395,0.685045,-2.314865,0.727535042,0.309362635,-0.629964724,-0.81533688,2.234924389,0.450934867
2708927,0.690686,-0.455681,-0.190183,0.168861,0.679546,-2.242707,0.716076512,0.311229799,-0.666484875,-0.81568713,2.159768669,0.435987722
2708937,0.66013,-0.452748,-0.19336,0.146493,0.675269,-2.17722,0.697904164,0.314173303,-0.696083283,-0.819564051,2.090738203,0.418167292
2708947,0.641552,-0.463015,-0.200934,0.119013,0.672825,-2.10385,0.695448468,0.320762777,-0.717495131,-0.820836857,2.015531857,0.396106785
2709008,0.560152,-0.567158,-0.238316,-0.007527,0.636775,-2.117796,0.733671666,0.362602143,-0.850071521,-0.862956499,2.017916639,0.271877683
2709018,0.522751,-0.580359,-0.250777,-0.031173,0.638608,-2.149933,0.722592989,0.374136947,-0.895811718,-0.8849463,2.045333766,0.253936347
2709028,0.494396,-0.591116,-0.250044,-0.053541,0.640441,-2.154784,0.71595254,0.373063872,-0.932155771,-0.90186795,2.045978422,0.238184586
2709038,0.464329,-0.597227,-0.25493,-0.076548,0.636775,-2.141444,0.703185694,0.37647904,-0.967377512,-0.911644482,2.029260628,0.219385608
2709048,0.443551,-0.616051,-0.258839,-0.097638,0.63372,-2.117796,0.705620555,0.381246578,-1.002152134,-0.919136625,2.002525136,0.203162643
2709058,0.435973,-0.620451,-0.262993,-0.111059,0.629443,-2.115977,0.703440524,0.38605891,-1.018087705,-0.924786793,1.998477016,0.191703575
2709068,0.410306,-0.640253,-0.270323,-0.132148,0.629443,-2.112339,0.702440124,0.393092456,-1.058357819,-0.937698104,1.99129106,0.176408091
2709078,0.381706,-0.661033,-0.272033,-0.160907,0.636164,-2.140838,0.702278925,0.393295372,-1.093750267,-0.964480342,2.014752229,0.15599412
2709169,0.151928,-0.738773,-0.280096,-0.196057,0.57995,-2.122041,0.626355248,0.378634502,-1.334120412,-0.937662825,1.997248504,0.098108086
2709179,0.11795,-0.741951,-0.274965,-0.179441,0.583617,-2.173582,0.60468141,0.368458151,-1.372301253,-0.940706977,2.049185852,0.11477941
2709189,0.078838,-0.739995,-0.276675,-0.164103,0.584228,-2.239676,0.573427106,0.36342167,-1.411658997,-0.944823117,2.115505173,0.127858816
2709199,0.028238,-0.748796,-0.281562,-0.147487,0.59767,-2.268175,0.541487802,0.360503122,-1.466474494,-0.951247768,2.143750814,0.151788687
2709209,-0.031896,-0.755397,-0.286448,-0.141735,0.594615,-2.265143,0.500285638,0.355354956,-1.526432878,-0.946035838,2.141135029,0.158384347
2709219,-0.074673,-0.762975,-0.287426,-0.13087,0.592782,-2.231186,0.469911903,0.348668977,-1.572654661,-0.932849398,2.108823588,0.171357814
2709229,-0.111829,-0.759553,-0.291579,-0.12384,0.587894,-2.189347,0.433107832,0.344611079,-1.606717075,-0.918499342,2.068358487,0.180133599
2709239,-0.153874,-0.749529,-0.290602,-0.096999,0.584228,-2.138412,0.398563334,0.335731225,-1.631151539,-0.888928934,2.023160756,0.200406959
2709301,-0.366786,-0.69648,-0.295733,-0.113615,0.562842,-1.368934,0.212585628,0.298024822,-1.757009197,-0.742470586,1.266805211,0.218224122
2709311,-0.401497,-0.708704,-0.302085,-0.130231,0.566508,-1.244629,0.190692445,0.297166931,-1.793753585,-0.733455868,1.1409878,0.217214424
2709321,-0.428142,-0.712371,-0.308438,-0.14493,0.559176,-1.089399,0.168379941,0.296610275,-1.818280242,-0.709031865,0.986316064,0.211960186
2709331,-0.459675,-0.709681,-0.307705,-0.155795,0.55551,-0.940233,0.140288103,0.287390883,-1.841044781,-0.685550495,0.837947175,0.21158116
2709341,-0.485586,-0.701614,-0.300864,-0.165381,0.55551,-0.788642,0.114361152,0.27240748,-1.855155429,-0.662957265,0.687246202,0.214659641
2709351,-0.512964,-0.692813,-0.291579,-0.189027,0.551844,-0.618859,0.088307655,0.25445926,-1.869248224,-0.643173461,0.51662232,0.206588349
2709361,-0.533498,-0.680101,-0.284982,-0.208839,0.551233,-0.484246,0.064916485,0.23988995,-1.875563184,-0.629747097,0.380792844,0.200950593
2709371,-0.548409,-0.674478,-0.275942,-0.225455,0.557954,-0.311431,0.05268082,0.227660297,-1.88159657,-0.610902617,0.208161622,0.206394337
2709434,-0.58752,-0.695991,-0.242958,-0.300228,0.481577,0.76123,0.058158868,0.188807902,-1.921727147,-0.391417014,-0.847234483,0.174673477
2709444,-0.569676,-0.709437,-0.234162,-0.288725,0.45347,0.961331,0.093491802,0.184582894,-1.916434331,-0.323621996,-1.038156285,0.175085091
2709454,-0.537653,-0.720927,-0.220724,-0.273387,0.410088,1.152336,0.139243558,0.179284383,-1.897771638,-0.243616274,-1.217888447,0.167897938
2709464,-0.50392,-0.727039,-0.212417,-0.245906,0.378315,1.328789,0.18184966,0.179785486,-1.873069262,-0.166945518,-1.382049962,0.177029106
2709474,-0.475809,-0.726794,-0.205332,-0.202448,0.328822,1.465221,0.216686685,0.18071022,-1.846862238,-0.075144415,-1.502164756,0.183945758
2709484,-0.439875,-0.72655,-0.202156,-0.162825,0.280552,1.622876,0.255961708,0.187901666,-1.813270271,0.017591865,-1.643739081,0.191729695
2709494,-0.410786,-0.728261,-0.197025,-0.118728,0.222505,1.775681,0.293407635,0.192827002,-1.784001135,0.119533316,-1.778524007,0.19802012
2709504,-0.371186,-0.729728,-0.19336,-0.082939,0.179123,1.934549,0.318371191,0.197090668,-1.753302823,0.207045751,-1.921666953,0.213943771
2709566,-0.088607,-0.782288,-0.192627,0.223184,-0.025568,2.468757,0.540320393,0.265095067,-1.542871398,0.654275321,-2.361703406,0.373506056
2709576,-0.038984,-0.77422,-0.187252,0.297957,-0.046343,2.465119,0.576535552,0.276463743,-1.476627977,0.709679967,-2.343139483,0.416880607
2709586,0.006727,-0.764442,-0.187252,0.367617,-0.071394,2.458449,0.604684255,0.291597124,-1.410862756,0.763074902,-2.322423214,0.4563748
2709596,0.049016,-0.764686,-0.182854,0.428331,-0.08056,2.454204,0.637108363,0.30280534,-1.350691734,0.796941398,-2.308534185,0.498627072
2709606,0.078349,-0.75833,-0.192382,0.486488,-0.095224,2.456023,0.651719386,0.324053465,-1.297430636,0.833726517,-2.300753259,0.537793361
2709616,0.119172,-0.763464,-0.199224,0.55487,-0.100112,2.448141,0.678862622,0.34578875,-1.237371288,0.861960842,-2.284388489,0.591515192
2709626,0.149972,-0.769087,-0.210463,0.604719,-0.09889,2.427524,0.698131024,0.369828291,-1.184719238,0.871608731,-2.260463564,0.631616788
2709636,0.185905,-0.777154,-0.219014,0.652011,-0.099501,2.393568,0.717224495,0.384545619,-1.155595087,0.882634576,-2.220895051,0.672880332
2709698,0.34284,-0.675212,-0.277164,0.843737,-0.031678,2.213477,0.668046639,0.448314315,-0.945242747,0.844549932,-2.039139098,0.860827044
2709707.875,0.372417,-0.655166,-0.281562,0.830316,-0.016403,2.229849,0.652175907,0.455995383,-0.881894682,0.819401282,-2.066729656,0.848015537
2709717.75,0.398084,-0.647587,-0.28767,0.808587,0.002539,2.24804,0.643119816,0.465737716,-0.826566713,0.788821268,-2.098046749,0.826718858
2709727.625,0.412262,-0.644409,-0.287181,0.774077,0.008038,2.271688,0.634243923,0.467376253,-0.783228401,0.769380524,-2.132944229,0.786402382
2709737.5,0.424484,-0.626319,-0.286204,0.740205,-0.015181,2.276539,0.609331343,0.463216541,-0.738235533,0.774159622,-2.142237397,0.736382739
2709747.375,0.44844,-0.588915,-0.290846,0.715281,-0.042677,2.272901,0.565199107,0.458361149,-0.67911726,0.784585529,-2.14072188,0.693730906
2709757.25,0.462373,-0.575225,-0.297199,0.690995,-0.066506,2.279571,0.538730393,0.458604961,-0.636061968,0.79581415,-2.149414038,0.651951083
2709767.125,0.471662,-0.56398,-0.30233,0.671823,-0.114166,2.315346,0.528153176,0.460844732,-0.625008977,0.847710147,-2.171653593,0.624912231
2709828,0.666974,-0.439058,-0.304284,0.577238,-0.563264,2.648848,0.417574688,0.42248074,-0.385706584,1.343722776,-2.380498893,0.441021416
2709838,0.71293,-0.440769,-0.310148,0.555509,-0.668359,2.677347,0.398467385,0.412585406,-0.314627616,1.444023927,-2.384264592,0.391865043
2709848,0.701197,-0.456904,-0.326518,0.53378,-0.766732,2.689474,0.383132147,0.415321063,-0.301594191,1.535053918,-2.37234463,0.348797746
2709858,0.687019,-0.459593,-0.319188,0.513329,-0.862051,2.695538,0.362149191,0.391008407,-0.292142528,1.623039536,-2.353881868,0.312324375
2709868,0.722464,-0.442236,-0.313569,0.492878,-0.937206,2.685836,0.32194572,0.356916927,-0.235268877,1.688126121,-2.325158513,0.280832545
2709878,0.772575,-0.429279,-0.308926,0.460924,-1.032525,2.664007,0.282891455,0.319946722,-0.166816717,1.769994047,-2.276544636,0.244862612
2709888,0.841264,-0.413878,-0.297443,0.426413,-1.110735,2.61853,0.014053422,-0.008713307,-0.016527055,0.755034061,2.774754745,0.054030714
2709898,0.879642,-0.417789,-0.296466,0.404045,-1.184057,2.533638,9.21E-17,1.53E-16,0.017943901,0.635925157,2.751492782,0.097218932
2709960,1.069332,-0.246908,-0.239293,0.203372,-1.426631,1.922421,0.255279972,-0.049319254,0.092746711,0.056392116,2.393957453,0.195259635
2709969.875,1.122865,-0.235173,-0.228543,0.147772,-1.441296,1.908475,0.307332916,-0.04434125,0.127805118,0.009403299,2.391263151,0.152380017
2709979.75,1.148532,-0.231751,-0.219503,0.089615,-1.448628,1.876944,0.33846462,-0.036285641,0.142427635,-0.042601282,2.369660099,0.111215364
2709989.625,1.156843,-0.254242,-0.216082,0.042322,-1.452905,1.820552,0.339095616,-0.017479611,0.155129767,-0.099167822,2.325923002,0.085916293
2709999.5,1.154643,-0.259864,-0.216082,0.000143,-1.444351,1.725352,0.343447323,-0.010686485,0.152974814,-0.162672601,2.243079179,0.071573578
2710009.375,1.172488,-0.247641,-0.210463,-0.05418,-1.439463,1.63561,0.372911263,-0.009061873,0.158103589,-0.232479523,2.166541973,0.047522891
2710019.25,1.149754,-0.251308,-0.21144,-0.093803,-1.425409,1.556176,0.365565067,-0.003964077,0.1384829,-0.281783499,2.09333462,0.028666922
2710029.125,1.149754,-0.227106,-0.20069,-0.17305,-1.400358,1.519188,0.387193407,-0.009345129,0.124180504,-0.326299456,2.047222869,-0.035891484
2710102,1.148288,-0.263776,-0.126903,-0.48109,-1.085073,1.017117,0.398351446,0.075034312,0.113522994,-0.518546891,1.450195975,-0.267205447
2710112,1.15831,-0.220016,-0.110777,-0.464474,-1.044745,0.931013,0.442479407,0.065526222,0.096484805,-0.520106959,1.357506814,-0.246327867
2710122,1.166132,-0.193614,-0.104669,-0.441466,-0.995253,0.898269,0.470071872,0.056419805,0.088188891,-0.485999726,1.30326249,-0.240039803
2710132,1.181777,-0.171368,-0.097584,-0.426128,-0.956148,1.071083,0.498476844,0.050805838,0.088313424,-0.364181381,1.419763357,-0.307679697
2710142,1.201577,-0.154744,-0.086345,-0.408234,-0.908488,0.965576,0.527693708,0.050925775,0.092764553,-0.369700623,1.307614568,-0.278940938
2710152,1.227244,-0.150588,-0.081702,-0.375001,-0.86755,1.017117,0.548828421,0.052211946,0.109748204,-0.29494175,1.325762001,-0.288375146
2710162,1.228955,-0.152544,-0.071441,-0.353272,-0.818669,1.053499,0.555221173,0.060410348,0.10760278,-0.228739598,1.326505153,-0.304864654
2710172,1.213066,-0.1633,-0.068997,-0.328987,-0.789951,1.064413,0.540308,0.06851839,0.098330138,-0.190599288,1.318388322,-0.301254389
2710234,1.138754,-0.134209,-0.066798,-0.170494,-0.544933,0.957086,0.517488322,0.048508399,0.024249712,0.012184745,1.088626214,-0.238281951
2710244,1.146332,-0.119785,-0.058247,-0.147487,-0.500329,0.923736,0.533376309,0.044241442,0.022433676,0.041103037,1.035747481,-0.225626721
2710254,1.154154,-0.09265,-0.050428,-0.127036,-0.456335,0.874621,0.556749073,0.031818777,0.015980559,0.06001841,0.970511927,-0.209394513
2710264,1.154888,-0.07407,-0.043832,-0.105307,-0.416008,0.817016,0.569272848,0.023231929,0.008247293,0.072696783,0.900706073,-0.187379593
2710274,1.139977,-0.071381,-0.040411,-0.089969,-0.364683,0.780028,0.56026506,0.021796729,-0.004056316,0.099081123,0.840454056,-0.182624488
2710284,1.115776,-0.056469,-0.036991,-0.070796,-0.324356,0.720604,0.55366854,0.013129993,-0.029025276,0.10864378,0.768990726,-0.162292347
2710294,1.081065,-0.039112,-0.032837,-0.051624,-0.279751,0.659361,0.543066663,0.003805341,-0.063851684,0.119806239,0.693377772,-0.143374748
2710304,1.077887,2.88E-06,-0.024041,-0.042676,-0.234536,0.621766,0.571995719,-0.012990046,-0.086178075,0.135818077,0.636098037,-0.142667701
2710367,1.022643,0.029828,-0.015245,-0.064405,-0.101945,0.895843,0.562903575,-0.028790324,-0.14604947,0.355760119,0.772919729,-0.305131608
2710376.875,1.005531,0.041073,-0.013535,-0.063766,-0.097057,0.918885,0.006799043,5.64E-05,0.006437554,0.375404323,-0.842673445,-0.082515858
2710386.75,0.99942,0.057697,-0.014757,-0.071435,-0.089114,0.940715,0.005505228,0.002535689,0.001174466,0.313282837,-0.889821525,-0.089780249
2710396.625,1.01262,0.076032,-0.012802,-0.076548,-0.087892,0.973458,-0.00190396,0.008139062,0.015516692,0.24098123,-0.946329103,-0.087145589
2710406.5,1.013109,0.084833,-0.004495,-0.084217,-0.084226,1.005596,0.00257372,0.005559682,0.016646032,0.128463708,-1.000380602,-0.09025278
2710416.375,1.019709,0.099012,0.001613,-0.100194,-0.078727,1.060775,0.004857593,0.00020604,0.024494404,0.049724706,-1.061997257,-0.105686609
2710426.25,1.02802,0.111968,0.002346,-0.112976,-0.077505,1.114135,-0.003362306,0.002537057,0.034093669,0.044458584,-1.115705113,-0.115294987
2710436.125,1.035843,0.130303,0.007477,-0.121923,-0.071394,1.150517,-0.020866188,-0.002223727,0.043822377,0.036765377,-1.151988312,-0.123381218
2710497,1.027532,0.202421,0.002835,-0.129592,-0.001738,1.00984,-0.086930267,0.004275465,0.043661419,-0.032710108,-1.010042067,-0.123769965
2710507,1.023376,0.208288,0.0065,-0.131509,0.00926,0.981341,-0.08662792,0.002084635,0.040776554,-0.045153412,-0.981434127,-0.123120861
2710517,1.024109,0.222711,0.012119,-0.117449,0.022091,0.948597,-0.094026816,-0.001532588,0.043888362,-0.057179865,-0.948474762,-0.10604073
2710527,1.028509,0.231268,0.01554,-0.105946,0.027591,0.918279,-0.094675153,-0.003494767,0.05003883,-0.06194334,-0.918032191,-0.092747282
2710537,1.027532,0.234935,0.014074,-0.092525,0.031868,0.88978,-0.090605706,-0.0009493,0.05024009,-0.064945968,-0.889382819,-0.077878852
2710547,1.022398,0.239579,0.014318,-0.077826,0.027591,0.850972,-0.087837189,-0.000471264,0.046510955,-0.058613871,-0.850599405,-0.063376346
2710557,1.006265,0.242269,0.013585,-0.052902,0.025146,0.823686,-0.084545424,0.000745914,0.031648964,-0.052439138,-0.823197141,-0.038550919
2710567,0.997709,0.251803,0.014318,-0.038203,0.020869,0.792155,-1.13E-16,-3.02E-16,0.029093292,-0.073162032,-0.789692731,-0.020910179
2710627,0.97962,0.270871,0.013097,0.013563,-0.021902,0.812165,-0.015265529,-0.000210787,0.016348805,-0.019836456,-0.81214845,0.017235117
2710637,0.96642,0.276005,0.010409,0.019315,-0.020069,0.825505,0.00770448,0.001116905,0.005084134,-0.004961389,-0.825651571,0.022565612
2710647,0.95102,0.28725,0.011875,0.021871,-0.023124,0.820048,0.007608037,0.001468858,-0.006504867,-0.003477772,-0.820268272,0.025291293
2710657,0.953465,0.304607,0.014074,0.035931,-0.021291,0.812771,0.007540887,0.001879136,0.001008797,-0.003905555,-0.812814246,0.040728256
2710667,0.956642,0.324409,0.017006,0.034014,-0.01457,0.817016,0.007629279,0.001472999,0.010264294,-0.015013002,-0.816605986,0.042587028
2710677,0.960065,0.355945,0.020915,0.045518,-0.004182,0.826111,0.007758795,-0.000274117,0.024108788,-0.024751648,-0.824964008,0.058056034
2710687,0.968865,0.384548,0.021648,0.041044,0.004983,0.842483,-0.008809542,0.00370487,0.042570791,-0.034878594,-0.8406251,0.060166189
2710697,0.973998,0.400438,0.027756,0.03721,0.020869,0.872802,-0.022071209,-0.001447933,0.053234948,-0.052674038,-0.869973594,0.063046195
2710757,0.949798,0.400193,0.01896,0.023789,0.12352,0.870982,-0.022901793,0.006008842,0.030567592,-0.151600242,-0.862427362,0.087573756
2710766.875,0.954687,0.404838,0.020671,0.023789,0.130241,0.864919,-0.01798746,0.005446098,0.037012611,-0.156085613,-0.85605392,0.091774067
2710776.75,0.956887,0.413884,0.024091,0.021871,0.140018,0.872802,-0.01853821,0.002454909,0.042671272,-0.164858527,-0.863526896,0.094919328
2710786.625,0.956642,0.435641,0.022625,0.013563,0.143684,0.900694,-0.031586643,0.006897245,0.050910843,-0.171488796,-0.891183137,0.091994228
2710796.5,0.968376,0.448109,0.028245,0.002699,0.14735,0.926162,-0.031702076,0.002346973,0.066930646,-0.179101253,-0.916569367,0.085549362
2710806.375,0.977176,0.453976,0.026779,-0.008166,0.145517,0.927981,-0.026247574,0.005417773,0.077481309,-0.180644639,-0.918586058,0.077186691
2710816.25,0.975954,0.454709,0.029466,-0.016474,0.149183,0.920704,-0.020503644,0.001008023,0.076890577,-0.186006847,-0.911397156,0.070565518
2710826.125,0.97302,0.46351,0.024336,-0.029895,0.146128,0.887354,-0.029487148,0.006587551,0.077631103,-0.187100116,-0.878342273,0.05614823
2710885,0.960309,0.507269,0.021892,-0.077826,0.139407,0.738188,-0.065075221,0.012003992,0.084258084,-0.193373778,-0.730041385,0.007673286
2710895,0.95762,0.499202,0.027267,-0.083578,0.13513,0.735763,-0.050576184,0.003848144,0.079078047,-0.191821196,-0.727871505,0.000539926
2710905,0.947109,0.481601,0.019693,-0.093803,0.131464,0.732731,-0.030672125,0.007177044,0.062238441,-0.192820102,-0.72503332,-0.011117472
2710915,0.875731,0.466688,0.011142,-0.086773,0.115577,0.730306,-0.022850034,-0.000206527,-0.007878812,-0.157909368,-0.727311332,-0.017813128
2710925,0.92462,0.46351,0.008454,-0.079104,0.097858,0.724848,-0.012609289,-0.006876592,0.034228627,-0.1383004,-0.722052003,-0.027425503
2710935,0.926331,0.456421,-0.003029,-0.065044,0.078916,0.729699,-0.004065092,-0.004622191,0.032657027,-0.115385582,-0.727149097,-0.029316304
2710945,0.931709,0.463266,-0.008649,-0.048428,0.056919,0.740007,0.001137319,0.002165961,0.040560362,-0.088861403,-0.738099633,-0.022538556
2710955,0.941976,0.471089,-0.007427,-0.031812,0.047143,0.746677,-0.001311306,0.000919039,0.053231326,-0.072851565,-0.74518987,-0.012071265
2711015,1.000887,0.458376,-0.018666,0.094727,-0.032289,0.678764,0.014086837,0.0041905,0.100915875,0.055358236,-0.680952512,0.063051521
2711025,1.009198,0.466444,-0.020621,0.1139,-0.045121,0.649659,-0.005459971,-0.005583595,0.111941926,0.075313359,-0.653119392,0.069490202
2711035,1.023865,0.480623,-0.019155,0.131155,-0.05062,0.611458,-0.01493327,0.003924484,0.131117375,0.0886049,-0.614545167,0.090157163
2711045,1.036576,0.475733,-0.018666,0.145215,-0.062229,0.571438,-0.016004055,-0.010481492,0.140523616,0.105416572,-0.575991487,0.092856802
2711055,1.046354,0.471822,-0.021842,0.14905,-0.065284,0.512014,-0.024444763,0.00156335,0.147758588,0.109950328,-0.515822321,0.102344995
2711065,1.054176,0.458376,-0.02282,0.156719,-0.076282,0.450164,-0.02871622,-0.006134562,0.149371174,0.122737702,-0.454900066,0.105018101
2711075,1.055887,0.440286,-0.02453,0.150328,-0.076282,0.374369,-0.011601573,0.006777287,0.144189806,0.121826666,-0.377810274,0.104820129
2711085,1.064198,0.432952,-0.023553,0.147132,-0.081782,0.287658,-0.00169981,0.005583285,0.149123796,0.126946701,-0.291094709,0.101151626
2711146,1.119443,0.485023,-0.026973,0.030819,-0.072005,-0.304761,-0.010542942,-0.000585121,0.220252428,0.082745162,0.303503673,0.007249578
2711155.875,1.120421,0.471089,-0.026973,0.005894,-0.068339,-0.248369,-0.010162542,-0.007643116,0.215661923,0.069113993,0.247862311,-0.01340333
2711165.75,1.116265,0.464732,-0.030149,-0.029895,-0.070172,-0.339931,0.016151389,0.001394405,0.209408753,0.05794038,0.340266555,-0.047249223
2711175.625,1.12311,0.475733,-0.029661,-0.050345,-0.064673,-0.42846,-0.004357706,0.001809416,0.220063716,0.047211567,0.429266843,-0.061613577
2711185.5,1.12531,0.476222,-0.028195,-0.074631,-0.072005,-0.501224,0.022208278,-0.002695309,0.222049293,0.044507678,0.502780181,-0.084918552
2711195.375,1.124087,0.48209,-0.029172,-0.105307,-0.069561,-0.594604,0.012279404,0.008619706,0.223359421,0.032635329,0.596071988,-0.1145222
2711205.25,1.127265,0.491624,-0.023308,-0.127036,-0.072616,-0.684953,0.006138948,-0.009793702,0.229971625,0.029359038,0.688146245,-0.127140213
2711215.125,1.129465,0.496269,-0.022575,-0.159629,-0.073838,-0.783791,0.002764032,-0.010560638,0.233841388,0.01936975,0.78799054,-0.154782174
2711277,1.103554,0.479889,-0.007671,-0.27083,-0.090336,-1.333158,0.020863649,-0.011323094,0.203170904,0.001429093,1.337704093,-0.263373219
2711287,1.104532,0.480378,-0.003762,-0.278499,-0.090947,-1.40956,0.028541716,-0.003681098,0.204134517,0.002700668,1.411575478,-0.283089771
2711297,1.105021,0.481845,0.003568,-0.281695,-0.097057,-1.476261,0.031295207,-0.002033525,0.205103821,0.012090948,1.475937316,-0.299301726
2711307,1.099643,0.484045,0.007233,-0.290642,-0.103167,-1.532653,0.027973479,-0.000829825,0.201159191,0.020042184,1.530914671,-0.316291007
2711317,1.095732,0.475978,0.010653,-0.293198,-0.107444,-1.579949,0.034289064,-0.002039861,0.194201515,0.02926927,1.577294925,-0.324086644
2711327,1.08791,0.475733,0.010898,-0.295116,-0.109888,-1.636341,0.03240336,-0.000661019,0.186987113,0.037497274,1.633002487,-0.329662746
2711337,1.09231,0.480623,0.012364,-0.274665,-0.123942,-1.68667,0.031146913,-0.001249605,0.193030084,0.065913932,1.68215645,-0.318846674
2711347,1.088398,0.482578,0.012608,-0.279138,-0.12272,-1.710318,0.027701711,-0.001376667,0.19032828,0.063898667,1.705872466,-0.322617376
2711409,1.07691,0.407283,0.016273,-0.265079,-0.070172,-1.638767,0.091480881,-0.006708076,0.147809065,0.023618794,1.636024827,-0.289159445
2711418.875,1.068598,0.379169,0.018227,-0.257409,-0.054897,-1.657564,0.114153707,-0.008659203,0.128227366,0.017906571,1.655025053,-0.278141903
2711428.75,1.048065,0.367191,0.017983,-0.244628,-0.035955,-1.67333,0.117242913,-0.007328363,0.10444251,0.010724625,1.671146022,-0.261390257
2711438.625,1.037065,0.357901,0.020671,-0.232485,-0.015792,-1.682425,0.12176746,-0.008560735,0.090469454,0.00182177,1.680694559,-0.245183656
2711448.5,1.028265,0.349589,0.023358,-0.233763,0.009871,-1.674542,0.12643612,-0.009556952,0.078892741,-0.018928092,1.673752576,-0.23880437
2711458.375,1.02802,0.3513,0.026534,-0.221621,0.026979,-1.681212,0.125651948,-0.010254124,0.07937357,-0.0257077,1.680827944,-0.224664327
2711468.25,1.029487,0.348367,0.030444,-0.204365,0.046532,-1.670298,0.129690193,-0.012086139,0.079427749,-0.033931063,1.670619346,-0.204218935
2711478.125,1.021909,0.345433,0.031177,-0.176245,0.067918,-1.669691,0.129013079,-0.012975447,0.071345523,-0.041058318,1.671253222,-0.169617428
2711539,1.022643,0.263782,0.028733,-0.026699,0.158348,-1.50476,0.201838663,-0.013639441,0.036957257,-0.067828203,1.511773918,0.005342209
2711549,1.03022,0.24398,0.028245,-0.004331,0.168736,-1.468984,0.221633005,-0.012947748,0.035561894,-0.070403334,1.476689593,0.028910277
2711559,1.037798,0.226134,0.022137,0.01612,0.175457,-1.454432,0.239896896,-0.00644262,0.034919945,-0.069543684,1.462606382,0.048617932
2711569,1.042687,0.199976,0.022625,0.029541,0.185233,-1.443517,0.263922152,-0.007636393,0.028584102,-0.074532976,1.452329015,0.064113433
2711579,1.035598,0.156461,0.011386,0.048074,0.187677,-1.425932,0.299075385,0.001690735,0.003804741,-0.071194465,1.434959856,0.08147021
2711589,1.032665,0.140082,0.007966,0.051269,0.193176,-1.415018,0.310962508,0.00491592,-0.005333434,-0.076988084,1.424386155,0.086129756
2711599,1.03682,0.127125,0.007477,0.065329,0.193787,-1.399252,0.322492871,0.005053229,-0.006428062,-0.073964568,1.408687377,0.099280185
2711609,1.045865,0.106101,-0.003762,0.058938,0.196842,-1.387125,0.345930326,0.015044898,-0.007422026,-0.080067955,1.396737159,0.095134948
2711669,1.057598,0.015649,-0.011825,0.037849,0.193176,-1.367115,0.431190432,0.018076507,-0.034263854,-0.087761855,1.376395516,0.074740727
2711679,1.057354,0.003181,-0.016467,0.028262,0.190732,-1.37621,0.44086132,0.022379821,-0.039052966,-0.089919572,1.38524761,0.064303414
2711689,1.058332,-0.004153,-0.015978,0.012924,0.190732,-1.39622,0.446502506,0.021975717,-0.040577389,-0.095952305,1.405116754,0.049153597
2711699,1.073487,-0.008309,-0.012313,0.004616,0.18951,-1.433209,0.45527907,0.018593074,-0.027904195,-0.096941243,1.441897747,0.039454637
2711709,1.086687,-0.026644,-0.015978,-0.001775,0.18951,-1.460495,0.476829707,0.021709365,-0.02326259,-0.098570342,1.469084372,0.032215408
2711719,1.093532,-0.0352,-0.013535,-0.009444,0.184622,-1.496271,0.486927728,0.019203225,-0.020322964,-0.095693393,1.504453022,0.021569797
2711729,1.089621,-0.050602,-0.016223,-0.019669,0.185844,-1.534472,0.499325328,0.021427778,-0.030302759,-0.099113707,1.542591504,0.010821503
2711739,1.076421,-0.064536,-0.013535,-0.031812,0.186455,-1.561152,0.506362399,0.017819803,-0.047996935,-0.103358317,1.569168391,-0.000810374
2711801,1.068598,-0.193614,-0.024286,-0.050984,0.201731,-1.764285,0.623216319,0.02129748,-0.11054752,-0.114629154,1.772707213,-0.019121154
2711810.875,1.060043,-0.200215,-0.025507,-0.050984,0.20723,-1.815219,0.62835978,0.022356456,-0.1230211,-0.116840479,1.823884312,-0.018920327
2711820.75,1.040976,-0.231995,-0.03528,-0.045872,0.210896,-1.85524,0.652594705,0.030463627,-0.15626455,-0.11601752,1.864088044,-0.014578106
2711830.625,1.021665,-0.244218,-0.035525,-0.035007,0.223116,-1.898898,0.658644843,0.030181439,-0.181477013,-0.120271662,1.908494826,-0.001442634
2711840.5,1.012376,-0.246419,-0.037235,-0.03309,0.226171,-1.933461,0.660136584,0.032166007,-0.193650837,-0.12079343,1.94317489,-4.90E-06
2711850.375,1.018487,-0.243974,-0.036258,-0.017752,0.235947,-1.966811,0.664067138,0.032029496,-0.189973659,-0.12166566,1.97718644,0.016213548
2711860.25,1.015554,-0.252286,-0.032593,-0.014556,0.241447,-1.980757,0.673668414,0.02860871,-0.199117446,-0.125025534,1.991449354,0.020122385
2711870.125,1.009931,-0.260109,-0.032104,-0.010083,0.253667,-1.986821,0.678195032,0.027584598,-0.207574248,-0.133725988,1.998291064,0.029265762
2711932,0.930731,-0.371341,-0.059224,0.034014,0.308659,-1.921333,0.747427486,0.048376289,-0.331663481,-0.168812644,1.936614174,0.094739955
2711942,0.921198,-0.386498,-0.061423,0.054465,0.317824,-1.93528,-0.004476074,0.001774899,0.000867653,0.031444074,-1.961076252,0.049783676
2711952,0.905798,-0.396765,-0.065332,0.063412,0.324545,-1.949833,-0.004110238,-0.000607772,-0.008968472,0.030068523,-1.976668282,0.055476621
2711962,0.887953,-0.416322,-0.068264,0.083863,0.335543,-1.974694,-0.004435658,-0.00064733,-0.016931123,0.047847549,-2.002971656,0.069668194
2711972,0.855931,-0.435635,-0.071196,0.09984,0.342265,-2.011075,-0.040199688,-0.002212389,-0.037792283,0.056984048,-2.040057118,0.080347905
2711982,0.847864,-0.461793,-0.070463,0.118374,0.348986,-2.029873,-0.071897497,0.001797846,-0.034640642,0.070125105,-2.059705836,0.094246309
2711992,0.838331,-0.479395,-0.075838,0.148411,0.355707,-2.078989,-0.097785982,-0.001532096,-0.0362545,0.083952425,-2.109283895,0.120921444
2712002,0.84762,-0.48844,-0.078282,0.175891,0.367316,-2.113551,8.54E-17,-6.19E-18,-0.018592149,0.113028401,-2.145046061,0.137689852
2712064,0.681397,-0.553957,-0.119329,0.334385,0.405199,-2.440989,-0.153215182,-0.029908136,-0.12762379,0.185069206,-2.473596621,0.285475045
2712073.875,0.668197,-0.562513,-0.118596,0.352279,0.408865,-2.442808,-0.174644279,-0.027816167,-0.136461493,0.201687726,-2.475119016,0.302803443
2712083.75,0.650597,-0.565202,-0.123482,0.367617,0.413143,-2.417947,-0.193316849,-0.032481941,-0.151736432,0.221281154,-2.4502948,0.315257255
2712093.625,0.622974,-0.577914,-0.131056,0.382316,0.412532,-2.381565,-0.225112833,-0.03833654,-0.171078174,0.237701598,-2.413156744,0.329199792
2712103.5,0.591441,-0.592338,-0.142784,0.381038,0.3997,-2.33245,-0.259930108,-0.048423245,-0.193064091,0.237274658,-2.361754657,0.333299755
2712113.375,0.580685,-0.611895,-0.14987,0.379121,0.399089,-2.278483,-0.288105227,-0.053143475,-0.194864778,0.247295783,-2.307410603,0.330440086
2712123.25,0.571641,-0.641964,-0.15891,0.354836,0.394201,-2.2039,-0.324442066,-0.058512442,-0.190396864,0.245710298,-2.232362003,0.307676068
2712133.125,0.554285,-0.655166,-0.164529,0.353558,0.391757,-2.141444,-0.34467227,-0.06244721,-0.199471729,0.250446502,-2.170212485,0.30284242
2712194,0.463107,-0.708704,-0.199957,0.264085,0.383203,-1.918302,-0.440085501,-0.091307258,-0.255218158,0.231869123,-1.948708737,0.212694518
2712204,0.457729,-0.717015,-0.203621,0.250025,0.382592,-1.877069,-0.452545403,-0.093827707,-0.257378374,0.232605384,-1.907384446,0.200141148
2712214,0.470929,-0.743907,-0.213639,0.230214,0.379537,-1.858878,-0.474014858,-0.099495867,-0.234347431,0.225551686,-1.888678435,0.185726807
2712224,0.477773,-0.751485,-0.223168,0.209763,0.384425,-1.867367,-0.481521327,-0.107391601,-0.225787525,0.221915097,-1.897605535,0.169379849
2712234,0.476796,-0.769331,-0.229764,0.189312,0.394201,-1.903142,-0.501905533,-0.111106659,-0.220421746,0.219540479,-1.934288293,0.153341814
2712244,0.452596,-0.788644,-0.239538,0.179087,0.402144,-1.975906,-0.53471622,-0.118459295,-0.235652624,0.216046581,-2.007161337,0.150411811
2712254,0.424729,-0.800867,-0.241003,0.171418,0.403977,-2.057766,-0.562094575,-0.118818833,-0.258517097,0.207373412,-2.088177556,0.153274979
2712264,0.388795,-0.820424,-0.246379,0.163749,0.404588,-2.115977,-0.595651534,-0.122457861,-0.282251418,0.198168949,-2.146119328,0.15087991
2712332,0.177105,-0.821402,-0.263482,0.237883,0.39359,-2.379746,-0.693750068,-0.146163552,-0.477661747,0.195110522,-2.403062347,0.248828609
2712342,0.159994,-0.81089,-0.261283,0.262807,0.394201,-2.411277,-0.695601316,-0.147242685,-0.504149339,0.20702808,-2.432723978,0.278768967
2712352,0.129683,-0.789622,-0.261771,0.273672,0.397256,-2.443415,-0.692920251,-0.153062821,-0.546923915,0.215627417,-2.46360399,0.295204599
2712362,0.097661,-0.767864,-0.260794,0.294122,0.396034,-2.45918,-0.689589186,-0.157741332,-0.591648766,0.225921929,-2.477294015,0.320765643
2712372,0.053172,-0.755886,-0.263482,0.304348,0.403366,-2.463425,-0.699555889,-0.165413143,-0.643806623,0.240956791,-2.480924307,0.332789683
2712382,-0.013073,-0.746351,-0.270323,0.305626,0.407643,-2.436138,-0.719225382,-0.177906396,-0.714781826,0.252583215,-2.453240455,0.334905076
2712392,-0.075896,-0.739017,-0.277653,0.298596,0.416809,-2.362162,-0.73826628,-0.190585058,-0.781739254,0.269656173,-2.380187899,0.323557939
2712402,-0.133829,-0.732417,-0.285471,0.281341,0.421086,-2.276057,-0.754144116,-0.20158454,-0.837307404,0.275510192,-2.296016112,0.298840751
2712464,-0.317652,-0.714326,-0.276187,0.055743,0.454081,-1.424113,-0.803955875,-0.202062251,-1.016415973,0.304189844,-1.464518145,0.007057921
2712474,-0.35603,-0.715304,-0.28034,0.023789,0.449804,-1.284043,-0.819445794,-0.20705482,-1.051425492,0.300960938,-1.32665232,-0.032743174
2712484,-0.397586,-0.710659,-0.282295,-0.011361,0.446138,-1.128813,-0.830842622,-0.210374586,-1.09079857,0.298370253,-1.174035611,-0.077476143
2712494,-0.428386,-0.709681,-0.27863,-0.034368,0.446138,-1.003901,-0.841476711,-0.206821847,-1.118059443,0.300251785,-1.051557225,-0.110062533
2712504,-0.464809,-0.713837,-0.280829,-0.073352,0.42964,-0.834119,-0.859955037,-0.208277312,-1.146879174,0.285117429,-0.883288192,-0.155677785
2712514,-0.49732,-0.719216,-0.272522,-0.106585,0.412532,-0.66373,-0.877556523,-0.198743285,-1.171063536,0.271505046,-0.714115135,-0.195972218
2712524,-0.521031,-0.733884,-0.263482,-0.129592,0.375871,-0.507894,-0.900669805,-0.186869386,-1.182634959,0.242422779,-0.556450785,-0.218227244
2712534,-0.533742,-0.739751,-0.254197,-0.139817,0.335543,-0.410875,-0.909962785,-0.177399555,-1.192938612,0.211581451,-0.455522578,-0.220655012
2712597,-0.574565,-0.755886,-0.248822,-0.059293,-0.0329,0.250064,-0.943119434,-0.17173653,-1.210792003,-0.027767395,0.249637106,-0.063563833
2712606.875,-0.557453,-0.757108,-0.241492,-0.038203,-0.085448,0.396198,-0.009912846,-0.000161906,-0.0293371,-0.053515272,0.403435706,-0.010460971
2712616.75,-0.54132,-0.763464,-0.242958,-0.020308,-0.139828,0.53263,-0.001656309,-0.001757467,-0.033083572,-0.032784109,0.549964227,-0.011115444
2712626.625,-0.521764,-0.762242,-0.239782,0.003977,-0.206429,0.638138,0.006167131,-0.000543411,-0.045689979,0.004829468,0.67068483,0.002718683
2712636.5,-0.495853,-0.758575,-0.237094,0.027623,-0.276085,0.778208,0.019942907,0.001291372,-0.063452934,0.037568889,0.825276473,0.010048414
2712646.375,-0.473364,-0.754908,-0.240026,0.05766,-0.335965,0.915854,0.033843657,-0.000934481,-0.077814672,0.070881254,0.974644561,0.005434517
2712656.25,-0.445742,-0.749774,-0.246379,0.064051,-0.393401,1.062594,0.052531331,-0.008224927,-0.095167196,0.081699803,1.131894336,0.010641438
2712666.125,-0.412742,-0.751485,-0.245157,0.081946,-0.425174,1.172346,0.08095717,-0.006509449,-0.111973434,0.095051758,1.24613251,-0.001467282
2712728,-0.172207,-0.761997,-0.25493,0.128599,-0.597481,1.514943,0.29061518,-0.012785271,-0.231453751,0.166297315,1.624894831,0.025209751
2712738,-0.144585,-0.754174,-0.261038,0.126682,-0.604813,1.536166,0.311530618,-0.021084381,-0.251449263,0.164588957,1.647370507,0.027091697
2712748,-0.121851,-0.755397,-0.264948,0.113261,-0.607257,1.581643,0.332944792,-0.024478973,-0.262288483,0.146701043,1.691460467,0.024979774
2712758,-0.093251,-0.75613,-0.262016,0.088976,-0.602369,1.627121,0.358211984,-0.021629274,-0.278683801,0.115944775,1.733292359,0.023287267
2712768,-0.070518,-0.770309,-0.25664,0.069803,-0.599925,1.675024,0.38526304,-0.012533517,-0.281927487,0.09024271,1.778177896,0.020675826
2712778,-0.037762,-0.781554,-0.256152,0.07172,-0.609701,1.687758,0.420025361,-0.008858305,-0.291927478,0.094254543,1.793290749,0.025109851
2712788,-0.00354,-0.764442,-0.254441,0.073637,-0.622532,1.686545,0.440916961,-0.012559121,-0.32579022,0.102110969,1.796024732,0.035651766
2712798,0.021394,-0.761508,-0.252976,0.077472,-0.631086,1.680481,0.459938938,-0.01193326,-0.342228942,0.110823228,1.792833967,0.041861904
2712860,0.21035,-0.722394,-0.240271,0.058299,-0.667748,1.863604,0.597591692,-0.010872336,-0.483670329,0.082517185,1.978416796,0.036931395
2712870,0.248239,-0.70797,-0.241248,0.075555,-0.678135,1.86421,0.624170092,-0.016022911,-0.51916772,0.101829263,1.982217909,0.036021124
2712880,0.290528,-0.695258,-0.243691,0.080028,-0.673858,1.859966,0.655272531,-0.021997582,-0.555804631,0.103727945,1.976918687,0.03155351
2712890,0.317906,-0.690124,-0.246623,0.084502,-0.666526,1.86421,0.678033921,-0.026138561,-0.578401801,0.102740587,1.978799989,0.021711669
2712900,0.325728,-0.691102,-0.254686,0.070442,-0.648195,1.900592,0.688992787,-0.033444279,-0.584360634,0.075104343,2.00790896,0.005452647
2712910,0.346995,-0.685235,-0.25664,0.058938,-0.634142,1.947889,0.706350076,-0.036935179,-0.605637239,0.050200573,2.048711467,-0.011939265
2712920,0.383906,-0.686213,-0.253953,0.03721,-0.614589,2.020653,0.739404963,-0.033960314,-0.632724597,0.00954464,2.112084579,-0.033917563
2712930,0.421551,-0.690369,-0.253953,0.024428,-0.602369,2.087959,0.772230355,-0.03253862,-0.651563142,-0.019728876,2.172535765,-0.052125278
2713068,0.736641,-0.629986,-0.241736,0.088336,-0.444726,1.966686,0.992504675,-0.039384448,-0.893501401,-0.031724751,2.009669489,-0.183467629
2713077.875,0.746419,-0.623141,-0.238805,0.094727,-0.431284,1.927272,0.00398842,-0.003672415,0.001221486,0.278673975,1.954115799,-0.1145806
2713087.75,0.772086,-0.617273,-0.23514,0.106231,-0.423952,1.890284,0.003053739,-0.001032542,0.016082268,0.280487746,1.917264538,-0.098067522
2713097.625,0.803375,-0.596249,-0.231475,0.122208,-0.420896,1.83753,0.002691986,0.000989301,0.026886903,0.290098322,1.865088359,-0.076766642
2713107.5,0.844931,-0.576203,-0.234407,0.144576,-0.415397,1.783563,0.045046491,-0.007063576,0.048229867,0.293255128,1.812622641,-0.054354897
2713117.375,0.871086,-0.556157,-0.241248,0.159914,-0.411731,1.748394,0.07659522,-0.019147786,0.058332916,0.29650594,1.778334333,-0.039846067
2713127.25,0.884286,-0.539533,-0.242225,0.145215,-0.396456,1.75082,0.099593268,-0.023498558,0.058895433,0.300375934,1.774553517,-0.066102523
2713137.125,0.877198,-0.528288,-0.249799,0.131794,-0.373237,1.763553,0.10110345,-0.034703111,0.048588513,0.312284947,1.777809017,-0.093101627
2713199,0.954442,-0.496752,-0.236606,0.067247,-0.311524,1.768404,0.178830275,-0.034129038,0.086535513,0.320282311,1.758822823,-0.181062382
2713208.875,0.949553,-0.494552,-0.23685,0.063412,-0.318245,1.783563,0.179735071,-0.03524317,0.081103014,0.320216545,1.774736533,-0.184850046
2713218.75,0.917775,-0.488195,-0.235628,0.060856,-0.312746,1.787808,0.166887219,-0.036373199,0.05213664,0.326485531,1.775976891,-0.192572683
2713228.625,0.909953,-0.469616,-0.233429,0.068525,-0.317023,1.781138,0.1781673,-0.041553896,0.034201351,0.328883745,1.770846257,-0.183278069
2713238.5,0.938798,-0.451037,-0.22781,0.074277,-0.331688,1.767798,0.213740361,-0.044142534,0.04357077,0.320616358,1.7635266,-0.166801841
2713248.375,0.977665,-0.433924,-0.219014,0.072359,-0.342075,1.746575,0.255585968,-0.04332651,0.060605793,0.30777281,1.747416932,-0.156797085
2713258.25,0.995998,-0.383809,-0.206065,0.087697,-0.35674,1.716863,0.308674103,-0.050965331,0.041108535,0.300092096,1.725078078,-0.128930648
2713268.125,1.005287,-0.419501,-0.211196,0.090893,-0.386068,1.684119,0.28785329,-0.042380471,0.070761958,0.271878,1.705700762,-0.101163762
2713356,1.008465,-0.274777,-0.184564,0.149689,-0.584649,1.44703,0.401050547,-0.069862835,-0.019772695,0.098301542,1.560416108,0.116427868
2713366,1.01262,-0.223439,-0.164529,0.147132,-0.596258,1.412467,0.446405811,-0.068119501,-0.052120457,0.07639807,1.533078579,0.126759059
2713376,1.008954,-0.232729,-0.174302,0.147132,-0.599925,1.384575,0.435076373,-0.070915352,-0.046998578,0.063866461,1.508992272,0.132170951
2713386,1.025087,-0.208282,-0.182854,0.138185,-0.598703,1.371841,0.461047129,-0.085687019,-0.047259944,0.053744865,1.496996756,0.124901188
2713396,1.068354,-0.179435,-0.164529,0.118374,-0.598092,1.376085,0.515562526,-0.077205085,-0.036214942,0.041744245,1.500817473,0.105549527
2713406,1.084732,-0.169656,-0.164773,0.083863,-0.583427,1.412467,0.534173136,-0.078962018,-0.029948005,0.039828423,1.528883519,0.058412127
2713416,1.09451,-0.162078,-0.169904,0.058299,-0.572429,1.443998,0.545696388,-0.084808879,-0.026289728,0.040148706,1.55374454,0.021678192
2713426,1.090843,-0.149855,-0.161597,0.034653,-0.555931,1.456732,0.554322916,-0.081782423,-0.038466692,0.040120592,1.559047901,-0.00939182
2713488,1.098176,-0.07627,-0.12788,-0.059293,-0.492996,1.414893,0.621601688,-0.077714938,-0.085815848,0.013741165,1.495373368,-0.110238779
2713497.875,1.103554,-0.080426,-0.12617,-0.066962,-0.483831,1.423382,0.623569711,-0.07398519,-0.080268709,0.019410047,1.499460119,-0.125838247
2713507.75,1.097198,-0.074559,-0.123727,-0.066323,-0.47711,1.424595,0.625010889,-0.07365751,-0.089699595,0.026612974,1.497826998,-0.131566102
2713517.625,1.099887,-0.05818,-0.113465,-0.060571,-0.467945,1.391851,0.641472256,-0.069877549,-0.100199409,0.028966549,1.463936573,-0.126258561
2713527.5,1.104532,-0.049868,-0.11151,-0.056097,-0.466112,1.328182,0.650748159,-0.070796064,-0.101987201,0.016075128,1.404400809,-0.108970878
2713537.375,1.114799,-0.041801,-0.095629,-0.034368,-0.458779,1.263908,0.666901344,-0.058296913,-0.10249618,0.017710526,1.342420412,-0.081954478
2713547.25,1.128976,-0.02591,-0.101004,-0.023504,-0.457557,1.188718,0.684636435,-0.068511315,-0.098867881,0.004687751,1.272700407,-0.056329642
2713557.125,1.142421,-0.012465,-0.089032,-0.01903,-0.442282,1.137784,0.706277257,-0.062529574,-0.099738758,0.003682945,1.219894299,-0.048705996
2713619,1.11211,0.010515,-0.089032,-0.095721,-0.432506,0.975884,0.700427431,-0.070460565,-0.134400418,-0.084831259,1.065841487,-0.073205964
2713629,1.098665,0.020049,-0.072907,-0.106585,-0.440449,0.962544,0.700676955,-0.057835092,-0.152362647,-0.10027764,1.056388132,-0.076388127
2713639,1.080332,0.02885,-0.091475,-0.114893,-0.441671,0.960118,0.687480203,-0.077232943,-0.164701687,-0.105981789,1.054402897,-0.084277156
2713649,1.073732,0.049141,-0.074373,-0.129592,-0.443504,0.972852,0.700711236,-0.068469899,-0.184425218,-0.111578414,1.066466176,-0.100653123
2713659,1.076176,0.10219,-0.055804,-0.138539,-0.436783,0.983767,0.743377525,-0.071377069,-0.216414118,-0.10772577,1.073500763,-0.117308241
2713669,1.067865,0.094856,-0.067043,-0.143652,-0.426396,0.977703,0.72737135,-0.077988881,-0.213439935,-0.10366453,1.063532725,-0.128469488
2713679,1.069821,0.111479,-0.064355,-0.141735,-0.40501,0.960118,0.738765173,-0.081266551,-0.219802671,-0.090612902,1.038678163,-0.137424382
2713689,1.072754,0.130792,-0.065332,-0.143652,-0.383013,0.920704,0.754094013,-0.089894739,-0.22835428,-0.087973044,0.993707591,-0.140842739
2713751,1.07911,0.13397,-0.064111,-0.13087,-0.202152,0.762443,0.756223828,-0.090251843,-0.221208179,0.004064892,0.775940792,-0.192901736
2713760.875,1.075932,0.138615,-0.060202,-0.121923,-0.178322,0.715146,0.753826783,-0.089057278,-0.222644194,0.014881877,0.722984012,-0.187537738
2713770.75,1.078621,0.140082,-0.056781,-0.117449,-0.153271,0.670882,0.752463238,-0.086985087,-0.217374304,0.024455471,0.672224547,-0.1867753
2713780.625,1.086198,0.137882,-0.047252,-0.106585,-0.143494,0.638138,0.753018436,-0.077632495,-0.207531247,0.030402915,0.638325048,-0.175464508
2713790.5,1.069087,0.146438,-0.052627,-0.106585,-0.126997,0.605394,0.741414055,-0.086754626,-0.219013741,0.034322781,0.601445352,-0.176283664
2713800.375,1.055887,0.158417,-0.053849,-0.092525,-0.114166,0.590235,0.736193889,-0.093629702,-0.23049038,0.049553437,0.582398637,-0.168310399
2713810.25,1.044643,0.172351,-0.04432,-0.079743,-0.100112,0.592054,0.73727351,-0.091616175,-0.244366243,0.070203943,0.578239372,-0.166192458
2713820.125,1.043176,0.188731,-0.037723,-0.070796,-0.09278,0.595692,0.750534262,-0.092474042,-0.256087737,0.082109217,0.578666224,-0.163928761
2713881,1.016043,0.258159,-0.030638,0.048074,-0.004793,0.641776,0.782682561,-0.116934129,-0.311768533,0.234296344,0.585975776,-0.126285904
2713891,1.003331,0.260115,-0.039189,0.05766,0.015981,0.650872,0.768958396,-0.127389774,-0.315643721,0.259879835,0.585544036,-0.12967298
2713901,1.004309,0.268671,-0.031127,0.081946,0.042866,0.648446,0.77358439,-0.125476347,-0.316178063,0.294813656,0.57229482,-0.120823853
2713911,1.006998,0.27356,-0.029172,0.096645,0.072806,0.64784,0.774331419,-0.127589377,-0.311623028,0.326966982,0.559213264,-0.121287894
2713921,1.00162,0.271849,-0.029661,0.105592,0.088692,0.636925,0.764530694,-0.129278593,-0.309489941,0.34183138,0.542534739,-0.116175565
2713931,1.004065,0.279183,-0.034059,0.117734,0.110689,0.627223,0.764451669,-0.138182443,-0.304464993,0.363439524,0.52438554,-0.111595516
2713941,1.007731,0.281628,-0.040655,0.122208,0.128408,0.616309,0.760432756,-0.147145868,-0.295316352,0.377059352,0.506822144,-0.110533943
2713951,1.006998,0.302896,-0.035769,0.128599,0.15346,0.604788,0.777778964,-0.151620156,-0.307799457,0.395594124,0.485918959,-0.11508368
2714011,1.013843,0.320742,-0.028928,0.074916,0.224949,0.578108,0.79135268,-0.155442034,-0.30632241,0.4129589,0.430812775,-0.185171864
2714021,1.008954,0.316831,-0.03186,0.060217,0.217617,0.575682,0.778474872,-0.158770934,-0.301319973,0.400910295,0.431056494,-0.189352174
2714031,1.003576,0.321231,-0.033814,0.046796,0.198675,0.558704,0.771921358,-0.164405371,-0.300996551,0.375594746,0.423026032,-0.183818779
2714041,1.000887,0.317075,-0.036258,0.035931,0.181567,0.542332,0.759991631,-0.166626163,-0.294114437,0.353172281,0.414828902,-0.177673667
2714051,0.998687,0.319764,-0.030149,0.019315,0.160792,0.520503,0.756505499,-0.163565041,-0.29184775,0.322823577,0.403297538,-0.174030295
2714061,0.993309,0.313408,-0.03357,0.009729,0.13513,0.49261,0.740824513,-0.164939508,-0.285865357,0.289964798,0.388442906,-0.161406033
2714071,0.991598,0.319764,-0.036746,0.011007,0.119243,0.471387,0.736812513,-0.171060717,-0.28256608,0.272399857,0.37553699,-0.14600013
2714081,0.983531,0.317564,-0.036013,0.007172,0.092358,0.435612,0.731291545,-0.169447588,-0.288679222,0.236293301,0.354645104,-0.129350602
2714141,0.983287,0.369146,-0.014757,0.027623,0.018425,0.353752,0.772510938,-0.171743784,-0.30929689,0.159495374,0.311926509,-0.059212052
2714151,0.980842,0.362301,-0.016956,0.03018,0.014148,0.342838,0.758302201,-0.170102372,-0.300254686,0.153978725,0.303753647,-0.051702676
2714161,0.973509,0.348856,-0.020865,0.039766,-0.002349,0.344657,0.735736376,-0.166951341,-0.292416178,0.146739634,0.312384,-0.035482625
2714171,0.967153,0.340788,-0.021598,0.05063,-0.015181,0.334348,-0.01866608,-0.005297158,0.025481047,0.050590773,-0.332877547,0.03486484
2714181,0.961287,0.330276,-0.023308,0.064051,-0.025568,0.332529,0.001420799,0.010350262,0.016655816,0.067319169,-0.329402851,0.047892383
2714191,0.965687,0.33321,-0.020865,0.069164,-0.038399,0.349508,-0.018618231,0.003378668,0.021595605,0.078760693,-0.346234284,0.048296563
2714201,0.974976,0.331499,-0.019399,0.070442,-0.045732,0.362241,0.012155577,0.002106766,0.029899953,0.086633404,-0.358824225,0.044853788
2714211,0.984509,0.340299,-0.01891,0.068525,-0.054897,0.381645,0.007080798,0.001126722,0.041809753,0.095695783,-0.377666586,0.03965513
2714272,1.04562,0.318053,-0.036991,0.012924,-0.06284,0.462292,0.028398675,0.01230931,0.093109887,0.089295628,-0.457717406,-0.018731139
2714281.875,1.05442,0.315853,-0.043343,0.00206,-0.057952,0.445313,0.012179802,0.013210018,0.101417458,0.08066191,-0.440895185,-0.027774775
2714291.75,1.072754,0.32392,-0.034303,-0.003692,-0.054897,0.410144,-0.007934217,-0.004950336,0.121077405,0.074386518,-0.405720589,-0.033209364
2714301.625,1.083754,0.327832,-0.036502,-0.027338,-0.056119,0.374369,0.00531899,-0.000859227,0.132828283,0.065940232,-0.36968982,-0.055047064
2714311.5,1.102576,0.332965,-0.038945,-0.041398,-0.05062,0.321615,-0.011132182,-0.008154112,0.152330606,0.054374187,-0.316686928,-0.066822336
2714321.375,1.117487,0.334921,-0.043343,-0.059932,-0.052453,0.268255,-0.003728828,-0.016221832,0.167283528,0.047396734,-0.262073763,-0.085876652
2714331.25,1.119687,0.326609,-0.04823,-0.071435,-0.045121,0.209437,-0.013375122,-0.005719075,0.167256162,0.035159823,-0.203947274,-0.09039921
2714341.125,1.127021,0.32172,-0.055315,-0.079743,-0.053675,0.142737,-0.007066877,0.001442047,0.173323409,0.037588491,-0.136622435,-0.097648443
2714402,1.176643,0.311697,-0.060202,-0.141096,-0.120276,-0.446651,0.004316992,-7.62E-06,0.218708092,0.055773066,0.457931711,-0.145118663
2714412,1.173954,0.303385,-0.059957,-0.152599,-0.139828,-0.573988,0.001048112,-0.002242993,0.214001303,0.067255033,0.586793911,-0.153134631
2714422,1.177621,0.298007,-0.060935,-0.157712,-0.158159,-0.707389,-0.001587655,-0.004913214,0.216258939,0.079045511,0.721547462,-0.152995455
2714432,1.177132,0.289206,-0.063622,-0.150043,-0.179544,-0.848065,0.00024438,-0.007370927,0.21378467,0.096484448,0.863388457,-0.138615717
2714442,1.178599,0.287495,-0.067287,-0.139178,-0.194209,-0.986923,0.001317845,0.00395411,0.215014052,0.107744508,1.001338495,-0.129680371
2714452,1.179332,0.285539,-0.068264,-0.129592,-0.209484,-1.089399,0.020856566,-0.009981886,0.215105685,0.119482531,1.105346737,-0.106772327
2714462,1.186666,0.29214,-0.071441,-0.120006,-0.214372,-1.219768,0.024397565,0.003456255,0.223935703,0.12125077,1.234114755,-0.102224218
2714472,1.188132,0.299962,-0.065821,-0.1379,-0.209484,-1.32952,0.017485866,-0.002662563,0.227051103,0.106994771,1.344070503,-0.112026736
2714534,1.190577,0.282605,-0.028195,-0.172411,-0.09278,-1.689095,0.043681851,-0.02930916,0.222851997,-0.029773268,1.696669999,-0.108628113
2714544,1.182021,0.267449,-0.033081,-0.163464,-0.06895,-1.699403,0.06104874,-0.014667717,0.210724937,-0.049711987,1.704670332,-0.105227917
2714554,1.17811,0.261581,-0.025751,-0.166659,-0.038399,-1.705467,0.069378858,-0.014999943,0.204986507,-0.079067667,1.708722605,-0.109008056
2714564,1.170532,0.242513,-0.020621,-0.15899,-0.010293,-1.715775,0.087975827,-0.014289282,0.192241173,-0.103044744,1.717144016,-0.100328586
2714574,1.166865,0.233957,-0.022575,-0.161546,0.01537,-1.704861,0.097468551,-0.006285237,0.186288251,-0.12689101,1.704691626,-0.103968781
2714584,1.175421,0.234935,-0.013779,-0.146847,0.044088,-1.701829,0.101863958,-0.008342086,0.194383936,-0.149362712,1.699714655,-0.091600268
2714594,1.205243,0.244713,-0.003029,-0.139178,0.081971,-1.682425,0.103085515,-0.013274949,0.225439296,-0.182192642,1.678268565,-0.0828499
2714604,1.226266,0.244224,0.000147,-0.118728,0.119854,-1.659383,0.10957057,-0.016535269,0.245429469,-0.211909579,1.653571575,-0.052996587
2714666,1.236777,0.11808,-0.02282,-0.064405,0.400311,-1.624214,0.233059365,0.017338385,0.220435865,-0.4659831,1.606371065,0.069998361
2714675.875,1.250955,0.113191,-0.020132,-0.050984,0.457136,-1.648469,0.24257691,0.020823924,0.232407692,-0.519764087,1.628008365,0.091960813
2714685.75,1.257799,0.111235,-0.01891,-0.027338,0.499907,-1.676968,0.247518134,0.02523311,0.238098219,-0.557864199,1.654426878,0.120562391
2714695.625,1.253888,0.099256,-0.027217,-0.001775,0.547567,-1.705467,0.259119022,0.039325132,0.230503353,-0.600482454,1.680629946,0.152821028
2714705.5,1.236777,0.087277,-0.032348,0.018037,0.590949,-1.743668,0.267515474,0.049828611,0.210055204,-0.641355558,1.716574238,0.178773829
2714715.375,1.214288,0.074809,-0.038456,0.032097,0.63372,-1.775199,0.275139411,0.060958104,0.18412542,-0.683181891,1.74569012,0.199477449
2714725.25,1.201332,0.059164,-0.043832,0.0436,0.663049,-1.806124,0.288631172,0.072000999,0.1662453,-0.712955983,1.774771128,0.213307407
2714735.125,1.211355,0.044251,-0.0409,0.046796,0.688101,-1.82674,0.305934338,0.070006123,0.171543947,-0.737026689,1.794306995,0.223396389
2714796,1.129954,-0.014665,-0.093674,0.14202,0.791974,-2.098999,0.341718893,0.127456851,0.073670746,-0.827506495,2.062180216,0.3403455
2714805.875,1.120176,-0.024933,-0.097584,0.131155,0.807249,-2.097786,0.354128104,0.135503533,0.058853456,-0.849834199,2.058115795,0.333915995
2714815.75,1.111621,-0.035934,-0.106379,0.117734,0.810304,-2.097786,0.367217301,0.14834249,0.044727214,-0.861402898,2.055606932,0.32190862
2714825.625,1.108199,-0.050602,-0.117618,0.114539,0.819469,-2.09718,0.385216515,0.16385459,0.034050042,-0.875370112,2.052515096,0.322058259
2714835.5,1.100621,-0.059891,-0.12617,0.101118,0.822524,-2.107488,0.396947456,0.176082435,0.020930987,-0.887216403,2.06021943,0.3108363
2714845.375,1.083265,-0.079204,-0.139608,0.085141,0.829857,-2.11052,0.414403099,0.193353206,-0.004956615,-0.903331145,2.060349405,0.298595836
2714855.25,1.053932,-0.100473,-0.143273,0.068525,0.830468,-2.111126,0.430191775,0.200271609,-0.042805685,-0.912963783,2.058426604,0.283906342
2714865.125,1.018976,-0.116852,-0.152068,0.048713,0.837189,-2.112339,0.433503534,0.208316131,-0.081430334,-0.925885313,2.058267067,0.267408853
2714927,0.971554,-0.205593,-0.186274,-0.049706,0.764478,-2.091116,0.503750741,0.247423395,-0.159821141,-0.890051972,2.035679049,0.153237458
2714936.875,0.947598,-0.20926,-0.194337,-0.059932,0.756534,-2.082627,-0.006054716,0.002033991,-0.010324402,-0.841124659,-2.041918245,0.190656623
2714946.75,0.931464,-0.234684,-0.201178,-0.078465,0.745536,-2.072319,-0.008453757,-0.002963824,-0.018626422,-0.765934324,-2.060212332,0.159237187
2714956.625,0.920953,-0.265976,-0.198491,-0.102111,0.732094,-2.06201,-0.006059322,0.000561521,-0.0210928,-0.641425791,-2.091019005,0.12035779
2714966.5,0.900909,-0.293601,-0.203377,-0.12384,0.716207,-2.059585,-0.042123683,0.016417761,-0.031931392,-0.658065882,-2.07983384,0.106862894
2714976.375,0.865464,-0.299223,-0.208508,-0.141735,0.705209,-2.068074,-0.066500765,0.018031265,-0.063362158,-0.675845015,-2.080461265,0.096192802
2714986.25,0.846886,-0.318292,-0.211684,-0.160907,0.68749,-2.096573,-0.094419713,0.029718348,-0.076129042,-0.710005012,-2.093274924,0.090801327
2714996.125,0.837108,-0.334915,-0.219991,-0.15899,0.668548,-2.132955,-0.114875556,0.032891458,-0.079654598,-0.744377726,-2.111093752,0.104480877
2715058,0.760597,-0.428301,-0.23856,-0.292559,0.53779,-2.010469,-0.224289783,0.07582981,-0.126613287,-0.817571901,-1.936038402,-0.011222528
2715068,0.75033,-0.450792,-0.243935,-0.302785,0.521904,-1.99531,-0.251097473,0.087692983,-0.131108281,-0.82495537,-1.914281806,-0.017272578
2715078,0.738841,-0.469372,-0.248089,-0.322596,0.508461,-1.98864,-0.274427773,0.098210006,-0.138148248,-0.8383983,-1.900892926,-0.031371836
2715088,0.711219,-0.490885,-0.250532,-0.343047,0.490742,-1.983183,-0.303598665,0.111618652,-0.160395355,-0.856267698,-1.88582471,-0.044660479
2715098,0.681886,-0.508975,-0.254197,-0.367971,0.474244,-1.964992,-0.331077644,0.121633797,-0.184995095,-0.867445352,-1.86137574,-0.065745747
2715108,0.654019,-0.53171,-0.251754,-0.384588,0.466912,-1.942556,-0.357808167,0.139216032,-0.208527533,-0.866938876,-1.838782387,-0.082066302
2715118,0.650841,-0.543445,-0.254441,-0.40376,0.464468,-1.912844,-0.371538185,0.146531872,-0.209965516,-0.859599006,-1.813284099,-0.103995936
2715128,0.64693,-0.557379,-0.249555,-0.429963,0.456525,-1.884345,-0.380542711,0.158751272,-0.211677254,-0.856993631,-1.786590666,-0.133022719
2715190,0.515174,-0.663722,-0.259817,-0.478533,0.451026,-1.925578,-0.508534266,0.214020598,-0.315146657,-0.901422325,-1.816423155,-0.168266551
2715200,0.50784,-0.667389,-0.256152,-0.472143,0.452248,-1.920727,-0.513640916,0.221560586,-0.324716869,-0.898168349,-1.812088176,-0.162078792
2715210,0.514685,-0.673012,-0.251754,-0.472143,0.455303,-1.926791,-0.516008123,0.23119435,-0.320654235,-0.901439602,-1.817770901,-0.160807298
2715220,0.520063,-0.688168,-0.249311,-0.465113,0.466912,-1.945588,-0.527703087,0.245026737,-0.316122785,-0.903204492,-1.83864977,-0.152440984
2715230,0.511263,-0.709926,-0.244913,-0.453609,0.476077,-1.992885,-0.547770602,0.263918848,-0.324973062,-0.921736913,-1.880550047,-0.133916546
2715240,0.485107,-0.726305,-0.235384,-0.435715,0.477299,-2.056553,-0.565696797,0.282744476,-0.353241871,-0.953943232,-1.930303255,-0.104851287
2715250,0.454551,-0.757597,-0.233918,-0.414625,0.488909,-2.104456,-0.601157283,0.304048082,-0.382381881,-0.9675036,-1.97423126,-0.07764453
2715260,0.408106,-0.775932,-0.230986,-0.37564,0.491353,-2.171156,-0.625499269,0.315546895,-0.42453816,-0.994717714,-2.026383927,-0.027502883
2715385,0.067349,-0.787911,-0.220724,-0.049706,0.448582,-2.040181,-0.719008232,0.314456726,-0.758747342,-0.863400303,-1.883585173,0.269595667
2715395,0.063927,-0.780332,-0.223168,-0.060571,0.452248,-2.003193,-0.717677981,0.306702723,-0.768309684,-0.838745323,-1.858518068,0.251785961
2715405,0.045838,-0.776421,-0.226833,-0.066962,0.466912,-1.985002,-0.72325664,0.299504512,-0.791239894,-0.815815276,-1.854612052,0.239965075
2715415,0.01186,-0.776421,-0.230497,-0.079743,0.495019,-1.957715,-0.735235813,0.293765151,-0.82903383,-0.778935401,-1.851950817,0.218148089
2715425,-0.032629,-0.771531,-0.23123,-0.093164,0.518238,-1.918302,-0.743475298,0.286705635,-0.878195206,-0.73930558,-1.836526881,0.194239528
2715435,-0.08494,-0.767375,-0.237583,-0.113615,0.544511,-1.844931,-0.756613279,0.275077211,-0.933714627,-0.679229057,-1.796463771,0.156642263
2715445,-0.128696,-0.760041,-0.238072,-0.125758,0.570785,-1.777018,-0.761160323,0.26685453,-0.981920115,-0.621091102,-1.759910265,0.127926799
2715455,-0.153141,-0.752952,-0.237827,-0.157073,0.595226,-1.667266,-0.760742382,0.261106366,-1.00671237,-0.544492051,-1.690200732,0.074106176
2715534,-0.400275,-0.775932,-0.197513,-0.040759,0.510294,-1.308297,-0.807883397,0.289183826,-1.254949133,-0.374082101,-1.347692484,0.132249204
2715544,-0.450631,-0.772754,-0.199468,-0.010722,0.457136,-1.231289,-0.816759294,0.280753836,-1.306734519,-0.362670709,-1.252952129,0.154083761
2715554,-0.496587,-0.758086,-0.204354,0.011646,0.416809,-1.153068,-0.817498257,0.263192771,-1.354231215,-0.342173931,-1.165557945,0.166801869
2715564,-0.52372,-0.74684,-0.208752,0.038488,0.364261,-1.040283,-0.816957454,0.249388589,-1.382120232,-0.310422104,-1.042990308,0.179347308
2715574,-0.550609,-0.732417,-0.207286,0.055743,0.311714,-0.92568,-0.810877027,0.238368584,-1.410160071,-0.279794343,-0.919573336,0.182363283
2715584,-0.56552,-0.727283,-0.205576,0.072998,0.248168,-0.806833,-0.80994928,0.234071995,-1.424508409,-0.25564689,-0.786091405,0.186012161
2715594,-0.579209,-0.716282,-0.202644,0.087697,0.198675,-0.697687,-0.803945543,0.227277668,-1.437748769,-0.226790125,-0.668866026,0.187387696
2715604,-0.589476,-0.712126,-0.203621,0.098562,0.130241,-0.606125,-0.803377155,0.223275517,-1.448107238,-0.22579919,-0.554073599,0.189952296
2715666,-0.56112,-0.690124,-0.221702,0.113261,-0.201541,0.410144,-0.79672066,0.198914604,-1.407366833,0.101646202,0.455583954,0.061451123
