time,aX,aY,aZ,gX,gY,gZ,aX_T,aY_T,aZ_T,gX_T,gY_T,gZ_T
392288,1.006265,-0.045957,0.003812,-0.03309,-0.004182,-0.067066,-0.000919858,0.008595353,0.007284022,-0.000129512,-0.067462273,-0.032543978
392297.875,1.005531,-0.045957,0.003079,-0.029255,-0.001738,-0.061002,-0.001396158,-0.00083351,0.006584062,0.001975474,-0.06093497,-0.029379358
392307.75,1.004309,-0.044979,0.005034,-0.026699,-0.001738,-0.062215,0.002815108,-0.006865357,0.005300931,0.002074166,-0.061927785,-0.027335156
392317.625,1.00822,-0.045957,0.007233,-0.034368,-0.001738,-0.048875,-0.001526802,0.003523956,0.00928548,0.000719265,-0.048856145,-0.03443117
392327.5,1.007243,-0.045468,0.004789,-0.030534,-0.003571,-0.050088,-0.007577011,-0.006544529,0.008230377,-0.00064941,-0.049980176,-0.030910277
392337.375,1.008954,-0.041312,0.007233,-0.033729,-0.009682,-0.047056,0.002148289,0.004015858,0.009815047,-0.007308448,-0.047689356,-0.033435993
392347.25,1.004798,-0.045712,0.001613,-0.032451,-0.005404,-0.040386,0.007337398,-0.006780284,0.005788944,-0.003843547,-0.040538297,-0.03248343
392357.125,1.009931,-0.045712,0.004545,-0.031173,-0.00296,-0.04463,0.007372319,-0.003881884,0.010940873,-0.001002379,-0.044577061,-0.031372525
392419,1.009443,-0.046446,0.006011,-0.029255,9.50E-05,-0.038567,0.000883786,0.008871433,0.01048951,0.003646535,-0.038494012,-0.029123726
392429,1.004309,-0.046935,0.003323,-0.028616,-0.007237,-0.033109,-0.001436169,-0.002747309,0.005405835,-0.004241491,-0.033760871,-0.028454681
392439,1.005776,-0.045957,0.004545,-0.032451,-0.000516,-0.029471,0.010675989,0.002490074,0.006775987,0.001407326,-0.029420487,-0.032470415
392449,1.00602,-0.050602,0.004789,-0.032451,-0.001127,-0.025833,-0.006429541,0.002297473,0.00728006,0.000732378,-0.025894996,-0.032412871
392459,1.008709,-0.047179,0.002102,-0.035007,-0.006626,-0.020376,0.00264957,-0.007502126,0.009782561,-0.005707964,-0.020927291,-0.034843119
392469,1.00822,-0.046935,0.006011,-0.027977,-0.003571,-0.020982,0.000654397,0.005046559,0.009316947,-0.002218028,-0.021403594,-0.027797039
392479,1.008709,-0.048401,0.001124,-0.03309,-0.001738,-0.015525,-0.001882844,-0.008822472,0.00982988,-0.001282876,-0.015494587,-0.033125011
392489,1.009931,-0.046446,0.006988,-0.033729,-0.00296,-0.011887,-0.000628204,-0.002763216,0.011018624,-0.002981422,-0.012037625,-0.033673647
392551,1.006754,-0.044245,0.001613,-0.031173,-0.006015,0.016613,0.000126954,-0.008742277,0.007689136,-0.007978645,0.01665214,-0.030707904
392561,1.00822,-0.044001,0.007966,-0.028616,-0.00296,0.023283,-0.000778377,0.006375692,0.009190695,-0.005021916,0.023162193,-0.028425839
392571,1.00822,-0.043512,0.004545,-0.031812,-0.006015,0.023889,-0.009794455,-0.002497477,0.009118105,-0.00792401,0.02383149,-0.031434663
392581,1.009443,-0.039601,0.003568,-0.031173,-0.002349,0.024495,0.003410661,0.002891483,0.010215891,-0.004537359,0.024374995,-0.031025002
392591,1.006998,-0.039601,0.002835,-0.032451,9.50E-05,0.023889,0.000205112,-0.006296223,0.007760668,-0.002021558,0.024126176,-0.032211825
392601,1.01262,-0.040334,0.007477,-0.035646,-0.004182,0.023889,-0.000138533,0.007103535,0.013425637,-0.006422035,0.023694675,-0.035441933
392611,1.011154,-0.04009,0.001857,-0.035646,-0.001127,0.02207,-0.005049987,-0.006487854,0.011916733,-0.003116332,0.022262966,-0.035406795
392621,1.01042,-0.037156,0.004789,-0.030534,-0.004793,0.011762,-0.002245197,-0.003451503,0.011105892,-0.006248193,0.011799801,-0.03025504
392682,1.01042,-0.034711,0.005767,-0.035007,-0.005404,-0.012493,-0.00553173,0.007524508,0.010989352,-0.004313217,-0.01346762,-0.034796375
392692,1.014087,-0.034467,0.005034,-0.031173,-0.004182,-0.016738,0.00188982,0.000169987,0.01468328,-0.002519308,-0.017221775,-0.031088089
392702,1.012131,-0.035445,0.003812,-0.028616,-0.001127,-0.020982,-0.010999672,0.000647954,0.012698686,0.001611798,-0.020960473,-0.028608576
392712,1.014087,-0.0352,0.004789,-0.03309,-0.00296,-0.033716,-0.000743373,-0.002295271,0.014706163,0.001426944,-0.033706169,-0.033201451
392722,1.013109,-0.032267,0.005767,-0.036285,-0.004793,-0.030078,0.003434593,0.008040572,0.013601409,-0.00114316,-0.030727747,-0.036038298
392732,1.010665,-0.035445,0.003079,-0.029895,-0.004182,-0.034322,-0.003592793,-0.003940409,0.011276983,0.000490856,-0.034509488,-0.029967551
392742,1.011887,-0.033,0.004545,-0.029895,-0.003571,-0.048875,0.004905909,0.00583823,0.012406443,0.003248715,-0.04900658,-0.029715814
392752,1.010176,-0.033978,0.004056,-0.032451,-0.004793,-0.04463,0.003955929,0.005186445,0.010734366,0.001261212,-0.045031566,-0.032224906
392814,1.008709,-0.038623,0.005034,-0.029255,-0.007849,-0.074949,0.005403891,0.007840357,0.009415797,0.000594248,-0.07556043,-0.028724252
392823.875,1.008465,-0.039356,0.004301,-0.031812,-0.004182,-0.075555,0.001837916,-0.001786889,0.009238564,0.004262212,-0.075433774,-0.032087844
392833.75,1.009687,-0.042779,0.003812,-0.030534,-0.001738,-0.0798,0.003497477,0.005320727,0.010579967,0.007100708,-0.07957667,-0.030340063
392843.625,1.008709,-0.043023,0.004056,-0.04012,-0.004793,-0.071917,-1.41E-05,-0.003235243,0.009629045,0.002726799,-0.071869176,-0.040398369
392853.5,1.008709,-0.044001,0.005767,-0.033729,-0.00296,-0.074949,0.001443671,0.006862243,0.009660348,0.005090773,-0.07493983,-0.033494262
392863.375,1.009443,-0.045468,0.002102,-0.03309,-0.004182,-0.072523,0.001021651,-0.005657371,0.010452314,0.003560874,-0.072400773,-0.033428595
392873.25,1.004798,-0.046201,0.003568,-0.029895,0.000706,-0.071917,-0.003525802,0.00393884,0.005852046,0.008556791,-0.071432003,-0.029841491
392883.125,1.005287,-0.044734,0.003568,-0.027338,-0.005404,-0.067066,-0.002051217,0.00412786,0.00627758,0.001994763,-0.067378896,-0.027028191
392945,1.00382,-0.04889,0.004545,-0.031812,-0.002349,-0.020376,0.008955303,0.006361857,0.004960104,-0.002295358,-0.020705829,-0.031602255
392955,1.006998,-0.050357,0.003812,-0.032451,-0.001738,-0.009461,-0.001452547,-0.000818606,0.008262144,-0.00243757,-0.009581387,-0.032370571
392965,1.006509,-0.04889,0.004545,-0.023504,-0.003571,-0.008855,-0.006132094,0.007451941,0.007659725,-0.003744273,-0.009316513,-0.023297727
392975,1.003331,-0.047179,0.002346,-0.034368,-0.006626,0.00873,0.000262207,-0.002509635,0.004439192,-0.009011181,0.008106531,-0.033975859
392985,1.007976,-0.048157,0.006988,-0.033729,-0.003571,0.017825,-0.012511478,-0.001259702,0.009071564,-0.006382787,0.017552816,-0.033455744
392995,1.010176,-0.043023,0.005767,-0.027338,-0.007849,0.013581,0.004732566,0.001492187,0.011096021,-0.010339411,0.012821763,-0.026872208
393005,1.005287,-0.045957,0.005034,-0.030534,-0.004793,0.022676,-0.008481918,0.0048544,0.006302058,-0.007965106,0.022029093,-0.030344276
393015,1.009443,-0.044245,0.002835,-0.029255,-0.006015,0.025102,-0.006423466,0.00283551,0.010391769,-0.009352557,0.024339884,-0.029021465
393086,1.008465,-0.037889,0.004789,-0.026699,-0.003571,0.009943,-0.009215002,0.005042219,0.009133206,-0.005551338,0.00928581,-0.026597148
393095.875,1.011887,-0.035934,0.003323,-0.030534,-0.001127,0.010549,-0.000822137,-0.003316557,0.012524528,-0.003495916,0.010389909,-0.030408963
393105.75,1.011398,-0.0352,0.007477,-0.031173,-0.002349,0.009336,-0.003762173,0.009179271,0.011989351,-0.004479764,0.008782397,-0.031100416
393115.625,1.011154,-0.033,-0.000341,-0.030534,-0.005404,0.001453,0.005123828,-0.005608901,0.011663884,-0.006680296,0.000805642,-0.030304524
393125.5,1.013354,-0.037156,0.005278,-0.029255,-0.00296,-0.007036,-0.010303849,0.004509968,0.013986314,-0.002850591,-0.007459855,-0.029160703
393135.375,1.007976,-0.034222,0.003568,-0.035646,-0.00296,-0.15317,0.004537385,0.002081022,0.008550729,0.014595072,-0.152461431,-0.035818202
393145.25,1.008954,-0.035689,0.001369,-0.035646,-0.004182,-0.005823,-0.00724392,-0.005364752,0.009545689,-0.004432133,-0.00621201,-0.035549977
393155.125,1.011398,-0.034711,0.003568,-0.031812,-0.001738,-0.011887,-0.006475971,-0.003067596,0.011974382,-0.001153207,-0.011937286,-0.031819743
393216,1.009931,-0.035689,0.003323,-0.035007,-0.005404,-0.022801,-0.004160829,0.008179034,0.010525192,-0.00437043,-0.023483933,-0.03469846
393226,1.008709,-0.0352,0.002102,-0.031173,-0.004182,-0.028258,-0.001712836,-0.001565246,0.009322506,-0.002596969,-0.028510176,-0.031115675
393236,1.009198,-0.033733,0.004056,-0.031173,-0.00296,-0.028258,0.011490281,-0.000546952,0.009704236,-0.001758229,-0.028364362,-0.03116735
393246,1.011398,-0.036423,0.004056,-0.035007,-0.00296,-0.027652,-0.00381857,-0.001465136,0.012053493,-0.001554654,-0.027731614,-0.035034632
393256,1.010176,-0.034956,0.005278,-0.031812,-0.002349,-0.030684,0.00922684,0.00249225,0.010749219,-0.000947196,-0.030783594,-0.031788397
393266,1.012131,-0.035689,0.004789,-0.038203,-0.004182,-0.032503,-0.003396089,-0.00166051,0.012764291,-0.00244378,-0.032628033,-0.038247127
393276,1.010665,-0.036667,0.005278,-0.031173,-0.00296,-0.036141,0.002552891,0.006083943,0.011322173,-0.000899619,-0.036387941,-0.031012866
393286,1.010665,-0.0352,0.003568,-0.033729,0.000706,-0.040992,0.004167245,0.004513328,0.011265433,0.003086864,-0.04089872,-0.033708365
393348,1.010176,-0.038623,0.003568,-0.030534,-0.007237,-0.060396,-0.001956039,-0.008778651,0.010880372,-0.002781521,-0.06053799,-0.030980496
393357.875,1.011643,-0.038378,0.004789,-0.03309,-0.001127,-0.062821,0.001683399,0.000843087,0.012380275,0.003292636,-0.062647576,-0.033273653
393367.75,1.009198,-0.039845,0.005522,-0.03309,-0.006015,-0.064034,-0.011369718,-0.003204328,0.009930285,-0.001104544,-0.064148656,-0.033394782
393377.625,1.009687,-0.037156,0.005034,-0.031812,-0.002349,-0.064034,0.001205854,0.0015398,0.010381078,0.002248537,-0.06397986,-0.031927979
393387.5,1.010176,-0.041312,0.002835,-0.031812,-0.002349,-0.061609,0.00095394,-0.009049585,0.010983415,0.001891406,-0.061310259,-0.032413959
393397.375,1.009931,-0.039845,0.006744,-0.033729,-0.000516,-0.063428,0.004411728,0.003514972,0.01072346,0.003696892,-0.063229995,-0.033901676
393407.25,1.008465,-0.044734,0.004545,-0.035646,-0.00296,-0.064034,-0.013152068,-4.25E-05,0.009381229,0.001668151,-0.064021727,-0.035751753
393417.125,1.007731,-0.040334,0.003568,-0.03309,-0.002349,-0.061002,-0.008707549,-0.00062061,0.008506383,0.002085245,-0.060948565,-0.033205935
393479,1.006998,-0.045712,0.004545,-0.031812,-0.002349,-0.040386,-0.00673322,0.007173018,0.007997236,0.000404285,-0.040645966,-0.031564095
393489,1.006509,-0.043023,0.00088,-0.035646,-0.001127,-0.033716,0.002557669,-0.003347013,0.007419662,0.000580988,-0.033663741,-0.035708418
393499,1.004065,-0.044734,0.003568,-0.031812,-0.001738,-0.028865,0.000208528,0.007908115,0.00503622,-0.000329967,-0.029172096,-0.031576766
393509,1.007731,-0.045468,0.002835,-0.031173,-0.003571,-0.032503,-0.000443945,-0.001646117,0.008758761,-0.001772711,-0.032695525,-0.031125763
393519,1.008709,-0.045223,0.003812,-0.030534,-0.003571,-0.025227,0.004151748,-0.008612305,0.009684153,-0.00259551,-0.025212604,-0.030644194
393529,1.007487,-0.045468,0.005767,-0.032451,-0.001738,-0.023408,-0.000327344,0.001455916,0.008527851,-0.000924186,-0.023470239,-0.032439424
393539,1.00822,-0.045468,0.004301,-0.036285,0.001928,-0.014918,-0.01182962,-0.003703649,0.009177759,0.00214219,-0.014532287,-0.03642923
393549,1.008709,-0.040823,0.005278,-0.031812,-0.00296,-0.01128,-0.007286966,-0.002283406,0.009519642,-0.002921639,-0.011400383,-0.031772608
393611,1.010665,-0.038867,0.002835,-0.035007,-0.00296,-0.00461,0.012121588,-0.001279431,0.011342599,-0.004382711,-0.004767993,-0.034836214
393621,1.011398,-0.041556,0.003323,-0.02606,-0.003571,-0.005823,-0.003055705,-0.001888232,0.012250441,-0.00413374,-0.006009115,-0.025934257
393631,1.00822,-0.039356,0.005034,-0.03309,-0.005404,-0.008248,0.002684018,0.008481876,0.008961178,-0.006180143,-0.008819742,-0.032805469
393641,1.010909,-0.038867,0.004056,-0.031173,-0.005404,-0.013099,-0.002261817,-0.000516646,0.011661365,-0.005583977,-0.013397433,-0.031014044
393651,1.010665,-0.0374,0.003568,-0.032451,-0.004182,-0.013099,0.00781181,0.005720841,0.011316706,-0.004690404,-0.013517546,-0.032208949
393661,1.01042,-0.039356,0.00259,-0.030534,-0.004182,-0.010674,-3.80E-05,-0.003384384,0.011183823,-0.004601404,-0.010848339,-0.03041199
393671,1.010665,-0.038378,0.006988,-0.029895,-0.000516,-0.013706,-0.004249871,0.00908603,0.011367801,-0.000567203,-0.013850718,-0.029827296
393681,1.011154,-0.036911,0.001613,-0.029255,-0.006626,-0.014312,-0.002391159,0.003830202,0.011818683,-0.006593741,-0.014882841,-0.028976126
393743,1.011398,-0.039112,0.003568,-0.031173,-0.005404,-0.034928,-0.00189033,-0.008741445,0.012120747,-0.003369941,-0.035003739,-0.031373653
393752.875,1.012376,-0.038623,0.005522,-0.033729,-0.002349,-0.036141,-0.00272786,0.001888788,0.013122098,-0.000285625,-0.03620134,-0.033744874
393762.75,1.01042,-0.036423,0.005278,-0.030534,-0.00296,-0.042811,0.011097839,0.00125971,0.011028348,-0.000542059,-0.042881931,-0.030573103
393772.625,1.010909,-0.039112,0.003812,-0.025421,-0.000516,-0.048269,-0.004044235,0.000275363,0.011664398,0.002926065,-0.04812047,-0.025539154
393782.5,1.010665,-0.037645,0.003568,-0.031173,-0.007849,-0.047662,0.009159188,-0.00010665,0.011330666,-0.005003536,-0.048163503,-0.030988233
393792.375,1.010176,-0.038623,0.003568,-0.033729,-0.002349,-0.048269,-0.004535157,-0.000850763,0.010909851,0.000813285,-0.048254161,-0.033822095
393802.25,1.01042,-0.041312,0.004301,-0.032451,-0.003571,-0.04463,0.004332286,-0.001210973,0.011263329,-0.001070863,-0.04471203,-0.032516826
393812.125,1.008954,-0.040334,0.005034,-0.032451,-0.004793,-0.050088,0.00517401,-0.000391401,0.009759092,-0.001803245,-0.050256949,-0.032493621
393874,1.007731,-0.044979,0.005522,-0.037564,-0.00296,-0.031897,-0.007112299,0.006889094,0.008700811,-0.000485906,-0.032275592,-0.037353505
393884,1.009198,-0.042779,0.00259,-0.032451,-0.000516,-0.030684,-8.79E-05,-0.003660884,0.010100958,0.001831694,-0.030486618,-0.032589147
393894,1.006509,-0.041556,0.004301,-0.034368,9.50E-05,-0.025833,0.008730582,0.005249918,0.007324169,0.001489064,-0.025837256,-0.034332656
393904,1.011398,-0.043757,0.005278,-0.036925,-0.002349,-0.02462,-0.003197162,-0.000210542,0.012352795,-0.00085512,-0.024717252,-0.036924843
393914,1.009443,-0.042534,0.004301,-0.024143,-0.005404,-0.030684,0.00851914,-0.004842685,0.010300343,-0.002899882,-0.031015662,-0.024149843
393924,1.008709,-0.04229,0.006011,-0.036925,-0.003571,-0.022801,-0.003303216,-0.000753375,0.009607322,-0.002252352,-0.02300434,-0.036902852
393934,1.010665,-0.041556,0.007233,-0.03309,-0.006626,-0.018557,0.005735658,0.007396527,0.011501534,-0.005919733,-0.019384343,-0.032747797
393944,1.007487,-0.044245,0.003079,-0.031173,-0.004793,-0.026439,0.003414821,0.002935076,0.008452716,-0.003069692,-0.026981325,-0.03092466
394006,1.005776,-0.045957,0.006011,-0.031173,-0.009682,-0.008248,-0.006802363,0.006902809,0.006796712,-0.009752378,-0.009640992,-0.030748479
394016,1.007976,-0.044734,0.004301,-0.038842,-0.003571,0.003273,-0.000399348,-0.002356147,0.008974497,-0.005673177,0.002817671,-0.038626951
394026,1.008954,-0.042779,0.003812,-0.032451,-0.004793,-0.001578,-0.008810043,0.001423102,0.009828256,-0.005643818,-0.002281648,-0.032271841
394036,1.007487,-0.041556,0.005278,-0.039481,-0.004182,0.005698,0.003116394,-0.000414052,0.008352582,-0.006635604,0.005126772,-0.039222323
394046,1.008709,-0.043268,0.005522,-0.031173,-0.002349,0.008123,-0.004450111,0.006991889,0.009617635,-0.00457609,0.007538765,-0.031072227
394056,1.009198,-0.042779,0.003079,-0.030534,-0.006015,0.011155,0.002061696,-0.002840266,0.01010287,-0.008739759,0.010308349,-0.030171078
394066,1.005531,-0.041067,0.000636,-0.027977,-0.005404,0.014794,-0.005052962,0.000370748,0.006356709,-0.008234019,0.013848176,-0.027770616
394076,1.005776,-0.040334,0.003079,-0.032451,-0.006626,0.016006,-0.004628661,0.002888319,0.006574343,-0.009758576,0.014872797,-0.032198345
394138,1.010176,-0.036667,0.005767,-0.035646,-0.012737,0.034197,-0.011187604,0.002112753,0.010793575,-0.018793439,0.031735668,-0.035241414
394148,1.008954,-0.0352,0.005278,-0.03309,-0.001738,0.046325,-0.007639773,0.010850048,0.009494419,-0.009795043,0.045135657,-0.033328726
394158,1.002354,-0.027377,-0.002785,-0.038842,-0.005404,0.046325,0.004956823,-0.004047542,0.002711247,-0.013708513,0.044822626,-0.038560584
394168,1.011154,-0.032756,0.007233,-0.029895,-0.003571,0.042686,0.003786022,-0.002561181,0.011699951,-0.011200162,0.041761374,-0.029310436
394178,1.011643,-0.032756,0.003812,-0.030534,-0.006015,0.040261,-0.001507746,0.0013313,0.012178344,-0.013077537,0.038779503,-0.030242052
394188,1.010909,-0.033,0.005522,-0.03309,-0.007849,0.047537,-0.012543627,-0.001825754,0.011383124,-0.015730344,0.045841809,-0.032671182
394198,1.007976,-0.028355,0.003079,-0.036285,-0.003571,0.048144,0.005090905,-0.00225562,0.00836407,-0.012104249,0.047063196,-0.035857227
394208,1.010665,-0.0308,0.006011,-0.02606,-0.001127,0.040867,0.002316859,0.000264711,0.011149384,-0.008236084,0.040236756,-0.025761907
394269,1.007731,-0.026888,0.003812,-0.02606,-0.006626,0.060877,0.006091109,0.008285215,0.008044403,-0.015942234,0.059136098,-0.026034663
394278.875,1.007487,-0.028844,0.001613,-0.027977,-0.004182,0.068154,-0.002722806,-0.001201419,0.007896709,-0.014389346,0.066865875,-0.027696044
394288.75,1.007487,-0.022977,0.004056,-0.027338,-0.005404,0.070579,-0.005532063,-0.004314653,0.007732717,-0.015677435,0.069271715,-0.026713521
394298.625,1.009687,-0.022488,0.004301,-0.034368,-0.004793,0.074217,0.005649361,0.001801394,0.009929149,-0.016043219,0.072804316,-0.033977082
394308.5,1.006509,-0.021999,0.005522,-0.027338,-0.00296,0.071186,-0.005407306,0.00366017,0.006743353,-0.01328257,0.070051199,-0.027202523
394318.375,1.008465,-0.02151,0.002102,-0.032451,-0.004793,0.077249,0.008137356,-0.001045969,0.008663197,-0.016405525,0.07584325,-0.031970429
394328.25,1.00382,-0.023221,0.002835,-0.027977,-0.003571,0.0821,-0.004808342,0.000513237,0.004080904,-0.015402026,0.080792682,-0.027770392
394338.125,1.005776,-0.022732,0.002835,-0.039481,-0.007237,0.091196,-0.004287921,0.000582616,0.006027543,-0.020502387,0.089284115,-0.039189703
394399,1.020687,-0.001219,0.005767,-0.029255,-0.006015,0.039655,-0.008800598,-0.004235486,0.020657291,-0.039957407,0.002451774,-0.029358963
394409,1.01702,-0.000242,0.004545,-0.036925,-0.005404,0.024495,0.001563316,-0.00034868,0.017028923,-0.025302752,-0.000166001,-0.036775088
394419,1.01922,0.000736,0.004545,-0.031812,-0.002349,-0.00461,0.010472806,-0.001189395,0.019175899,0.003559938,-0.003166482,-0.031875908
394429,1.018487,-0.000242,0.006988,-0.031812,-0.002349,-0.012493,-0.000811834,3.62E-05,0.018510677,0.01154084,-0.004860201,-0.031887045
394439,1.019954,-0.000486,0.005278,-0.029255,9.50E-05,-0.035535,-0.003168132,0.009320989,0.01992026,0.03471414,-0.007563632,-0.029262949
394449,1.013354,-0.004153,0.003568,-0.034368,-0.001738,-0.04463,0.005413403,0.00017695,0.013354317,0.042950841,-0.01113516,-0.03474551
394459,1.010176,-0.007576,0.004056,-0.034368,-0.001127,-0.053726,0.001742163,0.007698532,0.010181714,0.052053517,-0.012824154,-0.034567109
394469,1.010176,-0.010754,0.0065,-0.03309,-0.006626,-0.055545,-0.00131219,0.005102323,0.010240414,0.052691809,-0.018563386,-0.033212542
394530,1.004065,-0.019799,0.005767,-0.034368,-0.004793,0.025708,-0.011347607,-0.003902194,0.004205053,-0.012102392,0.023477847,-0.034166597
394540,1.004798,-0.01491,0.006011,-0.026699,-0.002349,0.033591,0.001502743,0.005720555,0.004909189,-0.012095128,0.031491525,-0.026621446
394550,1.007243,-0.011976,0.004056,-0.030534,-0.000516,0.043899,-0.004978432,-0.001323192,0.007309188,-0.012965934,0.042071311,-0.030357914
394560,1.010909,-0.007087,0.003812,-0.034368,-0.003571,0.045112,-0.011995122,-0.002237254,0.010867387,-0.01585451,0.042465453,-0.034268409
394570,1.013354,-0.005375,0.003812,-0.030534,-0.009071,0.039048,0.002146479,8.84E-05,0.013373148,-0.019828945,0.035044386,-0.03029948
394580,1.015309,-0.004886,0.004056,-0.027338,-0.004793,0.030559,0.014724118,0.004118635,0.015213735,-0.013650052,0.027979711,-0.027110946
394590,1.014087,-0.010265,0.004301,-0.024143,-0.001738,0.020857,-0.002466761,0.00169994,0.014143647,-0.007665737,0.019544102,-0.024087011
394600,1.008954,-0.011243,0.00259,-0.031173,-0.003571,0.029953,-0.002974615,-0.000217468,0.009015556,-0.012011944,0.027770446,-0.03108385
394662,0.998931,-0.016376,0.00259,-0.02606,-0.010904,0.202767,0.013736949,-0.001361697,-0.001026794,-0.043174239,0.198616971,-0.024490019
394671.875,0.996976,-0.017843,0.003079,-0.021586,-0.013959,0.236724,0.002903904,-0.000273146,-0.002863856,-0.051127931,0.231666284,-0.020389423
394681.75,0.992087,-0.015887,0.003568,-0.017752,-0.013959,0.27735,-0.002017648,-0.002653004,-0.007784986,-0.057228821,0.271853781,-0.015918339
394691.625,0.994776,-0.009287,0.006011,-0.017113,-0.018236,0.461685,-0.001757715,-0.004597685,-0.005174667,-0.089988483,0.453355585,-0.012216057
394701.5,0.99502,-0.006109,0.009187,-0.020308,-0.016403,0.361029,0.006364748,-0.008628036,-0.004976599,-0.072545267,0.354376526,-0.013336954
394711.375,0.986465,-0.006842,0.013341,-0.027338,-0.015792,0.409538,-0.00057126,0.000470611,-0.013421344,-0.079396857,0.402409677,-0.021925286
394721.25,0.992331,0.003181,0.00992,-0.024143,-0.019458,0.456834,0.003931047,0.00277056,-0.007625973,-0.090179704,0.448447143,-0.020532479
394731.125,1.011887,0.005381,0.007233,-0.014556,-0.018847,0.4726,0.00656729,0.000309423,0.0119058,-0.092000508,0.464043773,-0.010822666
394792,1.05222,0.010759,0.015295,0.160553,-0.010904,0.370124,0.007664366,0.003425207,0.052352672,-0.291868425,-0.221942224,0.168648778
394801.875,1.077154,0.014182,0.021159,0.208485,-0.012737,0.311307,-0.002289816,-0.005696597,0.077437644,-0.241885316,-0.191643448,0.212848672
394811.75,1.130932,0.029094,0.007721,0.242995,-0.022513,0.212469,-0.004924266,0.006118314,0.131305256,-0.155858189,-0.144646034,0.243889792
394821.625,1.18251,0.023472,0.007721,0.26792,-0.017625,0.105142,-0.011728592,0.009542946,0.182671476,-0.073207804,-0.076825404,0.268113934
394831.5,1.215266,0.019071,0.006744,0.306904,-0.000516,0.003879,0.001485396,-0.006035243,0.215418448,0.001739531,-0.007118333,0.30684146
394841.375,1.215021,0.033984,0.004545,0.339498,0.015981,-0.078587,0.005508252,-0.004621714,0.215483401,0.062217326,0.051027896,0.33943388
394851.25,1.235799,0.036428,0.005767,0.375926,0.025757,-0.128309,-0.003516502,0.006944453,0.236324729,0.094981816,0.091026954,0.375685411
394861.125,1.278088,0.035206,0.006744,0.403406,0.043477,-0.169542,-0.002802087,0.004732182,0.278578756,0.11819476,0.12931531,0.403334463
394933,1.334066,0.006848,-0.026973,0.435361,0.356318,-0.121032,-0.000215689,-0.010529393,0.334314661,-0.194634461,-0.319842244,0.436999803
394942.875,1.322088,-0.008553,-0.035769,0.413632,0.380759,-0.174999,-0.003372501,-0.000441818,0.322595057,-0.251451185,-0.333538646,0.414991289
394952.75,1.292022,-0.017599,-0.041877,0.393181,0.424141,-0.258071,-0.002322083,0.011052365,0.292770942,-0.339889564,-0.356618379,0.397977315
394962.625,1.254377,-0.012954,-0.049451,0.368896,0.455914,-0.351452,-0.006608333,0.010864154,0.255353801,-0.435886552,-0.366206915,0.378623496
394972.5,1.21111,-0.012954,-0.063378,0.345888,0.495019,-0.457566,-0.01750124,0.015119726,0.212615813,-0.546378582,-0.381095177,0.360951345
394982.375,1.192043,-0.019554,-0.073884,0.319047,0.51946,-0.515777,-0.022967388,0.025629561,0.1939947,-0.607213035,-0.392734998,0.338684433
394992.25,1.205488,-0.017354,-0.079015,0.285175,0.542067,-0.569137,-0.024185772,0.026333336,0.207670259,-0.663440489,-0.403802969,0.309625931
395002.125,1.221866,-0.013443,-0.079503,0.255138,0.561009,-0.589753,-0.024866824,0.02251808,0.224063945,-0.688956269,-0.417480677,0.280507115
395063,1.223332,-0.036667,-0.089521,0.108148,0.517016,-0.592785,0.000451407,-0.007553849,0.227127702,-0.342042389,-0.704369777,0.131399435
395073,1.197421,-0.049379,-0.090987,0.096645,0.484632,-0.586722,-0.004661577,0.001096631,0.201878129,-0.348565128,-0.672711211,0.120054632
395083,1.183977,-0.053535,-0.091964,0.088336,0.451637,-0.58369,-0.008728178,-0.003607962,0.188711787,-0.358330794,-0.642153041,0.108220878
395093,1.185199,-0.058669,-0.087566,0.083224,0.430862,-0.595817,-0.002817737,0.003500333,0.1898682,-0.376785539,-0.627906071,0.106455713
395103,1.191066,-0.067714,-0.097584,0.088976,0.408254,-0.632805,-0.012536887,0.003840349,0.196901883,-0.418007827,-0.62221668,0.114656376
395113,1.21331,-0.098028,-0.106135,0.08578,0.380759,-0.681315,-0.028384028,0.02354238,0.221325258,-0.472497253,-0.616523133,0.1147664
395123,1.221866,-0.125164,-0.1098,0.088336,0.359373,-0.74559,-0.039335567,0.04398814,0.231745244,-0.538534526,-0.622738277,0.122614244
395133,1.230177,-0.130542,-0.114931,0.090254,0.342876,-0.814715,-0.045373008,0.046754159,0.240701873,-0.608207095,-0.634438037,0.130547975
395194,1.267577,-0.179435,-0.124704,0.039127,0.303159,-1.321637,-0.003079114,0.000899864,0.286269477,-0.490214082,-1.25874863,0.124107624
395204,1.242888,-0.191414,-0.125437,0.015481,0.306215,-1.430177,-0.021855111,0.010782596,0.263546766,-0.55166583,-1.349946408,0.112796483
395214,1.214777,-0.203393,-0.129835,-0.00497,0.32149,-1.590864,-0.045004274,0.016513761,0.237582688,-0.631838532,-1.491224517,0.106105121
395224,1.19131,-0.199726,-0.12446,-0.022226,0.337376,-1.740636,-0.05021865,0.023062083,0.213073168,-0.704878346,-1.623788094,0.10290281
395234,1.190332,-0.199237,-0.127636,-0.045872,0.358762,-1.872824,-0.060582151,0.025666952,0.211836462,-0.764419959,-1.745133138,0.091959796
395244,1.191554,-0.188969,-0.128124,-0.061849,0.379537,-1.999555,-0.062158826,0.02446028,0.211389265,-0.820126303,-1.86169974,0.086952597
395254,1.20451,-0.178702,-0.126414,-0.072713,0.413143,-2.070499,-0.062024827,0.024933563,0.222411748,-0.833202209,-1.939694925,0.079360598
395264,1.23091,-0.172834,-0.125926,-0.079743,0.438805,-2.14387,-0.053554892,0.022602665,0.247994139,-0.854288511,-2.014792984,0.076731495
395326,1.119443,-0.245685,-0.137898,-0.06121,0.546955,-2.33245,-0.013101507,0.004645846,0.154268762,-0.65814651,-2.301981254,0.104665732
395335.875,1.105021,-0.260353,-0.141807,-0.051624,0.553677,-2.339726,-0.04381233,0.01361818,0.143179489,-0.651842794,-2.31192579,0.116795239
395345.75,1.074221,-0.274288,-0.149381,-0.028616,0.550622,-2.348821,-0.078840766,0.019032755,0.115760384,-0.65166279,-2.318460154,0.145057493
395355.625,1.055887,-0.287733,-0.159643,-0.012,0.544511,-2.351853,-0.111342011,0.02122331,0.100148195,-0.652486877,-2.318305704,0.166037051
395365.5,1.039998,-0.306557,-0.166239,0.007812,0.535346,-2.337907,-0.145662409,0.027777171,0.086839147,-0.647033488,-2.301987696,0.186187599
395375.375,1.042443,-0.320736,-0.160376,0.032097,0.522515,-2.317897,-0.166313947,0.043468735,0.088912114,-0.641303886,-2.27833721,0.211204949
395385.25,1.035598,-0.322448,-0.164773,0.042322,0.515794,-2.300919,-0.182751618,0.042995425,0.080897456,-0.634376106,-2.260792627,0.220105654
395395.125,1.020931,-0.349094,-0.158421,0.053826,0.503573,-2.302131,-0.205264062,0.061002127,0.069303206,-0.643587016,-2.255594489,0.233193905
395489,0.834908,-0.420478,-0.204354,0.110065,0.399089,-2.540433,-0.011919194,0.004117788,-0.043195605,-0.596975374,-2.459935639,0.466393842
395498.875,0.805819,-0.439302,-0.208508,0.087058,0.394201,-2.531338,-0.054131664,0.013568468,-0.060483234,-0.603371593,-2.449818186,0.452746255
395508.75,0.740552,-0.455193,-0.221946,0.078111,0.391146,-2.535582,-0.113390556,0.011893362,-0.110124116,-0.606767543,-2.452567158,0.452791434
395518.625,0.683108,-0.475239,-0.22952,0.058299,0.390535,-2.531338,-0.16884128,0.016109295,-0.153595138,-0.610276129,-2.449156131,0.439073711
395528.5,0.672352,-0.500663,-0.23123,0.017398,0.377704,-2.516179,-0.204985634,0.028179704,-0.155384846,-0.629028867,-2.431577608,0.407274825
395538.375,0.69093,-0.52731,-0.231475,-0.018391,0.363039,-2.488892,-0.229199202,0.042440718,-0.131272604,-0.642564512,-2.402588436,0.376030032
395548.25,0.700463,-0.565691,-0.227321,-0.05418,0.350819,-2.473733,-0.265910061,0.065583327,-0.11268933,-0.658565397,-2.385736013,0.346294229
395558.125,0.690197,-0.598449,-0.234407,-0.081022,0.345931,-2.474339,-0.299997856,0.072788008,-0.1088418,-0.673923778,-2.385289328,0.323740441
395620,0.544996,-0.674478,-0.225122,-0.196696,0.331266,-2.608346,-0.014898032,-0.001855298,-0.104234554,-0.464745349,-2.580927967,0.273345801
395629.875,0.533507,-0.680835,-0.218037,-0.207561,0.326378,-2.60774,-0.038873415,0.008060288,-0.108860258,-0.472901698,-2.579712846,0.267128607
395639.75,0.525685,-0.698436,-0.218281,-0.210117,0.331266,-2.633814,-0.068512262,0.014585012,-0.10172526,-0.473854032,-2.606864867,0.265669769
395649.625,0.509796,-0.714326,-0.215349,-0.213952,0.331877,-2.660494,-0.103031781,0.023585662,-0.102583176,-0.478286546,-2.633266316,0.267014263
395659.5,0.488774,-0.734861,-0.214616,-0.203087,0.337987,-2.692631,-0.145135994,0.031900439,-0.103953882,-0.468964869,-2.666398211,0.275923495
395669.375,0.442573,-0.748552,-0.210463,-0.188388,0.341654,-2.735077,-0.201064889,0.041071661,-0.129148887,-0.460129761,-2.708365951,0.293083892
395679.25,0.39344,-0.740729,-0.210951,-0.16602,0.350819,-2.793288,-0.245688577,0.038143296,-0.171654045,-0.444851524,-2.767027853,0.314258559
395689.125,0.327195,-0.74024,-0.193848,-0.128953,0.356929,-2.836946,-0.289959478,0.052803529,-0.221717172,-0.422653574,-2.809607426,0.346063379
395751,0.093016,-0.714082,-0.175524,0.222545,0.329433,-2.997633,-0.013211061,-0.00122368,-0.258921243,0.176542867,-2.989545122,0.418698652
395761,-0.003051,-0.685479,-0.174058,0.285814,0.331877,-3.018856,-0.116539125,-0.008835086,-0.302484746,0.244835258,-3.010248091,0.428702298
395771,-0.039962,-0.657855,-0.170393,0.33758,0.31538,-3.004303,-0.159490665,-0.014713399,-0.338373081,0.299792137,-2.991811017,0.445480448
395781,-0.01674,-0.657855,-0.163308,0.391264,0.299493,-2.909104,-0.146821332,-0.009582134,-0.33812795,0.358241345,-2.894275067,0.447777437
395791,-0.000851,-0.675456,-0.1787,0.430887,0.292161,-2.801777,-0.145191737,-0.022016906,-0.316911545,0.40419581,-2.786454337,0.439629377
395801,-0.023829,-0.68988,-0.197758,0.460285,0.283607,-2.70779,-0.180768131,-0.03978009,-0.306205442,0.439071942,-2.691319065,0.434096093
395811,-0.047051,-0.700636,-0.210951,0.499269,0.27933,-2.608953,-0.215151858,-0.05336529,-0.301096037,0.484003685,-2.59212823,0.424902588
395821,-0.107918,-0.694769,-0.218281,0.536336,0.277497,-2.53255,-0.273120258,-0.063456658,-0.31928315,0.521549818,-2.516203666,0.418539473
395883,-0.234052,-0.689635,-0.260061,0.619418,0.290328,-1.900717,-0.004560276,-0.003954904,-0.226713469,0.712937063,-1.880769436,0.187406495
395892.875,-0.242363,-0.691102,-0.261771,0.616861,0.301937,-1.824921,-0.017932803,-0.005597588,-0.222482839,0.699970235,-1.813136753,0.156833945
395902.75,-0.253852,-0.688168,-0.270323,0.604719,0.330655,-1.760646,-0.034782369,-0.014829555,-0.219192194,0.674370293,-1.762433233,0.118092937
395912.625,-0.286608,-0.672767,-0.294022,0.606636,0.348986,-1.712137,-0.073923082,-0.042074301,-0.216435293,0.666516003,-1.722972509,0.091289211
395922.5,-0.308608,-0.657121,-0.319677,0.593854,0.37526,-1.65999,-0.102605499,-0.070493189,-0.216582415,0.641952703,-1.683208214,0.061288469
395932.375,-0.308363,-0.644409,-0.334336,0.568291,0.403977,-1.582375,-0.110365935,-0.086707814,-0.223834827,0.601828526,-1.620877281,0.024939585
395942.25,-0.289297,-0.641231,-0.338979,0.535697,0.439416,-1.498696,-0.097890284,-0.089980831,-0.23052118,0.55296094,-1.555642416,-0.01892803
395952.125,-0.289786,-0.645631,-0.337757,0.49863,0.478521,-1.455038,-0.09744106,-0.087277486,-0.226835732,0.50387875,-1.528811874,-0.059918822
396014,-0.440853,-0.605295,-0.391509,0.458368,0.59156,-1.578737,-0.004761641,0.000419352,-0.155020798,0.579731796,-1.646537572,0.072663896
396024,-0.463342,-0.585004,-0.396395,0.441112,0.601336,-1.54478,-0.034999172,-0.015660466,-0.155858843,0.551557233,-1.623206149,0.059299643
396034,-0.477764,-0.572536,-0.391753,0.420023,0.609279,-1.49142,-0.057222048,-0.020776858,-0.159868889,0.515466918,-1.582679057,0.037345604
396044,-0.482409,-0.581337,-0.387355,0.39382,0.624555,-1.467772,-0.062417888,-0.016661441,-0.153512286,0.480232992,-1.571106257,0.022785701
396054,-0.495364,-0.603583,-0.384423,0.381038,0.641052,-1.489601,-0.068993997,-0.005146512,-0.13242158,0.468808688,-1.598335717,0.024292236
396064,-0.523231,-0.595271,-0.390287,0.382316,0.652662,-1.542961,-0.099321605,-0.017028633,-0.122339798,0.480229462,-1.649486511,0.037891585
396074,-0.58532,-0.569847,-0.393708,0.38679,0.655717,-1.564184,-0.167042453,-0.035899947,-0.109416423,0.488890894,-1.668967639,0.042137707
396084,-0.632254,-0.541978,-0.397128,0.389985,0.650828,-1.527195,-0.218439613,-0.054128443,-0.105265308,0.483676508,-1.635025051,0.027204277
396146,-0.850299,-0.411189,-0.367809,0.276867,0.636164,-0.977221,0.000499736,-0.000867736,0.013591259,0.297810272,-1.152778716,-0.136861705
396156,-0.895766,-0.401166,-0.364633,0.241717,0.612945,-0.861406,-0.030580252,-0.004034196,0.046583339,0.226694149,-1.051378842,-0.139144785
396166,-0.922411,-0.388698,-0.3639,0.216154,0.594004,-0.7371,-0.0504315,-0.010170905,0.063816062,0.153249701,-0.946386018,-0.154103044
396176,-0.943189,-0.378919,-0.359746,0.202094,0.570174,-0.607338,-0.066361954,-0.012589819,0.076122609,0.086130174,-0.833804672,-0.179307511
396186,-0.965678,-0.377697,-0.351195,0.174613,0.540845,-0.487278,-0.079065578,-0.006306797,0.091895512,0.020630558,-0.724479203,-0.187475673
396196,-0.996722,-0.381853,-0.344842,0.157997,0.506017,-0.342356,-0.090015446,0.002160306,0.118067537,-0.049484283,-0.592696891,-0.21091607
396206,-1.005278,-0.378919,-0.336291,0.148411,0.452859,-0.190765,-0.093405473,0.006879302,0.121821374,-0.107808278,-0.443439072,-0.235026697
396216,-1.005767,-0.37843,-0.321143,0.136268,0.385036,-0.042811,-0.102431888,0.017951003,0.116733997,-0.153033753,-0.287365941,-0.25031172
396278,-0.947344,-0.409722,-0.302574,0.102396,-0.001127,0.778815,-0.002771699,-0.003359094,0.075576511,-0.355474845,0.629233934,-0.307800756
396288,-0.9273,-0.424634,-0.29842,0.092171,-0.063451,0.895843,0.013140176,0.006671041,0.062561365,-0.374083108,0.762213176,-0.306837264
396298,-0.904077,-0.444192,-0.29671,0.078111,-0.120887,1.001958,0.036086715,0.01797145,0.049320425,-0.391822157,0.883430628,-0.301098907
396308,-0.870833,-0.452748,-0.292556,0.079389,-0.178933,1.088668,0.055252192,0.025998915,0.022345896,-0.391368065,0.988930829,-0.303915285
396318,-0.838321,-0.459593,-0.294755,0.067247,-0.225371,1.151124,0.076916763,0.027962477,-0.002909108,-0.392949301,1.06788898,-0.29258278
396328,-0.819255,-0.468883,-0.296954,0.067247,-0.280973,1.213579,0.094618961,0.031591056,-0.015489483,-0.381926254,1.152028938,-0.288450409
396338,-0.807766,-0.476706,-0.302085,0.069803,-0.335354,1.274822,0.109954344,0.032277819,-0.021297771,-0.369770098,1.234283114,-0.286916653
396348,-0.786254,-0.483062,-0.305017,0.061495,-0.384846,1.350618,0.126270857,0.033448886,-0.036923439,-0.37645138,1.324784055,-0.281582363
396410,-0.612454,-0.51142,-0.306972,0.034014,-0.592592,1.673811,0.006000477,-0.002850868,-0.145109367,-0.22675183,1.741585928,-0.263491095
396420,-0.599254,-0.523887,-0.304528,0.015481,-0.612756,1.711406,0.027338409,0.005312339,-0.148222659,-0.238189951,1.784853737,-0.249364708
396430,-0.574565,-0.529755,-0.303063,0.004616,-0.629253,1.739905,0.052969121,0.009780899,-0.16351265,-0.243347266,1.818242717,-0.240885001
396440,-0.541564,-0.533177,-0.301352,-0.012639,-0.65125,1.769617,0.082859927,0.012039966,-0.186752449,-0.249708755,1.855807361,-0.222385276
396450,-0.491209,-0.558357,-0.289869,-0.017113,-0.669581,1.803574,0.134413811,0.035462027,-0.214030388,-0.251429503,1.894552688,-0.221278243
396460,-0.472142,-0.536844,-0.304773,-0.029895,-0.694021,1.816914,0.144767498,0.012920758,-0.2365332,-0.247242019,1.918549009,-0.204392822
396470,-0.429853,-0.536111,-0.311614,-0.036285,-0.727016,1.846625,0.180758756,0.007171168,-0.267492841,-0.239258722,1.961033733,-0.192340108
396480,-0.402475,-0.544667,-0.312591,-0.035007,-0.761844,1.862997,0.204799634,0.010343969,-0.282844848,-0.221850456,1.992754298,-0.17917108
396543,-0.11354,-0.61214,-0.321143,-0.042676,-0.918265,2.041269,0.021782981,-0.003645553,-0.299820202,-0.065357171,2.234905835,-0.112850926
396552.875,-0.123318,-0.61874,-0.318699,-0.010722,-0.924986,2.001855,0.020741321,0.004572323,-0.293484281,-0.029257756,2.20258231,-0.104463644
396562.75,-0.136274,-0.629252,-0.327251,0.004616,-0.940261,1.934549,0.020526841,0.006921391,-0.278090973,-0.005595464,2.149503897,-0.078699281
396572.625,-0.14654,-0.633408,-0.333848,0.003338,-0.950038,1.875125,0.018057361,0.001975084,-0.269380958,0.000869962,2.101692559,-0.039556785
396582.5,-0.122829,-0.642698,-0.336535,-0.013917,-0.953704,1.828434,0.049126827,0.002896994,-0.265846303,-0.011308598,2.062212168,-0.008305662
396592.375,-0.092518,-0.660788,-0.339956,-0.023504,-0.978756,1.769011,0.088273217,0.007775642,-0.256415558,-0.011038069,2.021348202,0.044105207
396602.25,-0.04974,-0.664944,-0.342643,-0.028616,-1.022749,1.70231,0.136105322,0.006943266,-0.262805352,-0.002153535,1.982795281,0.114943317
396612.125,-0.009162,-0.675945,-0.349973,-0.008166,-1.070408,1.616206,0.178673557,0.005626082,-0.260060277,0.037996317,1.928871277,0.189667295
396694,0.289306,-0.769576,-0.405436,-0.107224,-1.216441,2.106756,0.01269636,-0.001419031,-0.083397403,-0.130650594,2.430809352,0.061178865
396704,0.306417,-0.802823,-0.421561,-0.137261,-1.201777,2.18619,0.034214772,0.008465139,-0.043502475,-0.143028714,2.494359542,-0.015764532
396714,0.297128,-0.806979,-0.430357,-0.174967,-1.178558,2.237732,0.035641557,0.005047049,-0.039056969,-0.164488029,2.528747933,-0.073719017
396724,0.296639,-0.813335,-0.437687,-0.22226,-1.150451,2.249859,0.046746004,0.001617589,-0.031036315,-0.198604051,2.526366218,-0.113281473
396734,0.348462,-0.82947,-0.427181,-0.304702,-1.126011,2.306857,0.109227839,0.019043664,-0.010234133,-0.262338646,2.565390981,-0.179668719
396744,0.412507,-0.833137,-0.410322,-0.373084,-1.109513,2.345665,0.186991235,0.037179325,-0.001854016,-0.317612856,2.592074334,-0.229407462
396754,0.451373,-0.819936,-0.408612,-0.429963,-1.10157,2.319591,0.241926051,0.033892098,-0.008375319,-0.371625164,2.565971666,-0.237720851
396764,0.468485,-0.834848,-0.402748,-0.483646,-1.09546,2.281996,0.256475828,0.046107161,0.005360438,-0.427006622,2.530405658,-0.236990205
396826,0.588018,-0.765175,-0.343865,-0.800633,-0.979367,2.169212,0.01445321,0.002929205,0.024345455,-0.652816606,2.38191967,-0.453809198
396836,0.642285,-0.772998,-0.328473,-0.832588,-0.973867,2.188616,0.073308563,0.023556293,0.054524251,-0.666030817,2.399060729,-0.482255405
396846,0.684574,-0.762242,-0.313324,-0.839618,-0.93965,2.192861,0.131575835,0.035548719,0.062661962,-0.648108451,2.390223345,-0.513154628
396856,0.672841,-0.751974,-0.303063,-0.853677,-0.910322,2.121309,0.142339077,0.043322454,0.043019579,-0.657120626,2.314748752,-0.517236055
396866,0.626641,-0.73095,-0.300131,-0.858151,-0.893824,2.055215,0.126322286,0.040277342,-0.000267096,-0.663313283,2.249666786,-0.508200767
396876,0.65573,-0.728261,-0.284982,-0.880519,-0.887103,2.01944,0.168765892,0.05510419,0.005008587,-0.682703406,2.216525925,-0.51120665
396886,0.70633,-0.734617,-0.261283,-0.899053,-0.886492,1.99276,0.227995325,0.080940796,0.023865094,-0.699941728,2.194291703,-0.510315862
396896,0.722708,-0.739751,-0.250288,-0.904804,-0.885881,1.950314,0.242524864,0.092785908,0.031869635,-0.714648493,2.156120278,-0.49759723
396958,0.70413,-0.71946,-0.208264,-0.69071,-0.780786,1.784776,0.008268216,0.004446331,0.027962795,-0.674031257,1.932103888,-0.291185308
396968,0.794819,-0.69428,-0.181876,-0.672177,-0.774065,1.760522,0.105647563,0.02592324,0.065367269,-0.657714168,1.907911363,-0.278787659
396978,0.850797,-0.706259,-0.168194,-0.656839,-0.755734,1.768404,0.1516021,0.045453205,0.107202484,-0.63019544,1.911105604,-0.283466287
396988,0.871575,-0.688657,-0.156711,-0.622967,-0.732515,1.759309,0.189662647,0.053990348,0.10433822,-0.588944617,1.896509426,-0.276098714
396998,0.877931,-0.662255,-0.150358,-0.584622,-0.694632,1.739299,0.220492275,0.054506124,0.086445716,-0.537260715,1.866962337,-0.274335681
397008,0.871086,-0.64612,-0.155978,-0.520713,-0.642696,1.703523,0.231875201,0.046385555,0.069894052,-0.460413693,1.817946743,-0.263210292
397018,0.894798,-0.617273,-0.154267,-0.48109,-0.595647,1.692002,0.275892076,0.040376686,0.06195151,-0.400426441,1.793422264,-0.26908912
397028,0.944909,-0.610917,-0.140341,-0.43891,-0.556542,1.70898,0.320870951,0.051664139,0.086342876,-0.340838716,1.797646999,-0.274386338
397090,0.855686,-0.593071,-0.141562,-0.205004,-0.35124,1.349405,0.001680362,-0.00080249,0.05069885,-0.141052765,1.394320553,-0.149212419
397099.875,0.899442,-0.585493,-0.134721,-0.128314,-0.328633,1.268759,0.03521275,0.00364584,0.081061738,-0.093310169,1.310616672,-0.088264849
397109.75,0.941731,-0.568625,-0.131056,-0.05418,-0.284028,1.225707,0.075453937,0.000339562,0.105293595,-0.022808319,1.258368259,-0.044205574
397119.625,0.999176,-0.546378,-0.102959,0.003338,-0.239424,1.229345,0.134249611,0.018447862,0.135393708,0.047084108,1.251414245,-0.019224888
397129.5,1.067376,-0.536355,-0.080969,0.020593,-0.200319,1.277854,0.189528823,0.032174626,0.181764701,0.097570638,1.289617546,-0.028795411
397139.375,1.109176,-0.541489,-0.063133,0.04424,-0.178933,1.325151,0.216189967,0.045982946,0.215983132,0.137508019,1.330615338,-0.0235316
397149.25,1.095976,-0.544178,-0.079992,0.063412,-0.164269,1.333033,0.204649271,0.026134461,0.208771059,0.161406962,1.334826706,-0.012954615
397159.125,1.032665,-0.547601,-0.085856,0.110705,-0.161214,1.246323,0.16348611,0.02219947,0.160351061,0.175266409,1.248881831,0.033799841
397221,1.078376,-0.455681,-0.10418,0.31649,-0.091558,1.088668,-0.00112009,-0.003014209,0.175322553,0.264074464,1.08166431,0.232408693
397230.875,1.096221,-0.452503,-0.103692,0.312017,-0.074449,1.123837,0.012230166,0.001656831,0.190402938,0.282967186,1.113709157,0.213279979
397240.75,1.093043,-0.453481,-0.106135,0.319047,-0.055508,1.137784,0.024767751,0.005714705,0.18785797,0.305848265,1.124878186,0.201321786
397250.625,1.064687,-0.452014,-0.122261,0.32352,-0.035344,1.131114,0.021493659,-0.004189638,0.162902956,0.323825874,1.11567481,0.189049707
397260.5,1.031932,-0.442969,-0.129835,0.33055,-0.019458,1.106252,0.02439749,-0.007885872,0.130179141,0.335596664,1.089690714,0.18271407
397270.375,0.99722,-0.432702,-0.147915,0.338219,-0.003571,1.06502,0.020174706,-0.022989415,0.096641265,0.343834894,1.04771458,0.180953499
397280.25,0.982798,-0.410211,-0.157444,0.345888,0.006816,1.014691,0.031726501,-0.034854822,0.075514833,0.344941518,0.997645673,0.187086217
397290.125,1.040243,-0.395787,-0.15891,0.338219,0.00926,1.003777,0.068931135,-0.037823189,0.121527147,0.341752816,0.986246538,0.180468513
397351,1.119443,-0.363273,-0.171859,0.305626,-0.078727,1.045616,0.020734923,0.000422769,0.189212051,0.458191092,0.979685479,0.152300022
397360.875,1.074954,-0.366451,-0.187496,0.306904,-0.081782,0.968001,0.009610274,-0.007634045,0.151006756,0.425421238,0.912207428,0.157475948
397370.75,1.057598,-0.362296,-0.199468,0.304987,-0.090336,0.877046,0.001566912,-0.015058611,0.135486762,0.380009406,0.835041117,0.169370992
397380.625,1.087176,-0.35325,-0.19678,0.30307,-0.093391,0.810952,0.015987292,-0.015799018,0.159721684,0.348515841,0.777229589,0.180741043
397390.5,1.132643,-0.334426,-0.189206,0.296679,-0.099501,0.74789,0.045666835,-0.016699716,0.195054595,0.314146135,0.723156138,0.18872132
397400.375,1.197177,-0.325381,-0.187985,0.277506,-0.104389,0.713327,0.070985011,-0.018073036,0.252628604,0.287639923,0.694235781,0.179002816
397410.25,1.250221,-0.323425,-0.194826,0.262807,-0.117832,0.709083,0.082819283,-0.023062989,0.303158668,0.267426973,0.696488568,0.170695897
397420.125,1.275155,-0.329537,-0.201178,0.26089,-0.132496,0.716359,0.083797517,-0.025902603,0.329433912,0.257094585,0.709230109,0.172290527
397481,0.971309,-0.251552,-0.223168,0.313934,-0.121498,0.199129,-0.008884875,-0.000743725,0.027834639,0.138597206,0.229783272,0.284533199
397491,1.033398,-0.224906,-0.2024,0.30307,-0.108055,0.145162,0.033726689,-0.004493862,0.076244494,0.107973245,0.180225323,0.283654588
397501,1.077154,-0.205104,-0.172348,0.278784,-0.089725,0.110599,0.070634927,0.003462366,0.107714288,0.08923473,0.141957381,0.264364328
397511,1.104287,-0.18848,-0.15329,0.241717,-0.070172,0.092408,0.092952384,0.004369408,0.12685983,0.078453425,0.115055333,0.229123955
397521,1.074954,-0.202415,-0.153779,0.203372,-0.053675,0.059665,0.065251502,0.008739285,0.102638554,0.056861223,0.078913045,0.195807612
397531,0.997954,-0.223194,-0.175524,0.175891,-0.046343,0.0154,0.025460141,0.005529891,0.037235568,0.028332983,0.040681888,0.175683533
397541,0.935376,-0.231506,-0.189695,0.148411,-0.029845,-0.03796,0.000390916,0.003651415,-0.017913447,0.000149049,-0.009871922,0.155756327
397551,0.861309,-0.226861,-0.199468,0.119652,-0.015181,-0.111331,-0.024921696,-0.006531983,-0.087616949,-0.043618123,-0.074989925,0.139339965
397612,0.875731,-0.152544,-0.136676,-0.106585,0.103357,-0.11315,-0.01046162,0.000687707,-0.100697567,-0.021853865,-0.153288759,-0.104263699
397622,0.886486,-0.142032,-0.128613,-0.14493,0.094802,-0.06464,-0.003063684,-0.004148054,-0.093057208,-0.003646053,-0.110880434,-0.147860371
397632,0.890886,-0.140809,-0.118351,-0.181358,0.077083,0.008123,0.003120623,0.011561976,-0.090401967,0.023972979,-0.046731967,-0.190105012
397642,0.88722,-0.139587,-0.125437,-0.219064,0.061196,0.091196,0.0054526,-0.00418017,-0.093175268,0.05760013,0.027604516,-0.236581725
397652,0.885998,-0.141543,-0.126658,-0.252297,0.023313,0.157896,0.00079721,0.004849182,-0.093884679,0.068052537,0.099834869,-0.273002326
397662,0.883798,-0.139587,-0.128613,-0.284251,-0.005404,0.238543,0.008845851,0.006099059,-0.096114337,0.091662373,0.176853291,-0.313131793
397672,0.872064,-0.137631,-0.134721,-0.316205,-0.036566,0.302817,0.011855076,0.004741308,-0.107013641,0.102517664,0.242820381,-0.351495663
397682,0.865464,-0.139587,-0.143761,-0.324514,-0.072616,0.342838,0.002957161,-0.00059388,-0.111647258,0.101470547,0.296584622,-0.360363156
397744,0.84102,-0.1633,-0.134477,-0.47406,-0.255311,0.471994,0.013643592,-0.001643159,-0.132891733,-0.020918779,0.527637867,-0.4835862
397753.875,0.823419,-0.172101,-0.137898,-0.48109,-0.269364,0.415602,0.004923433,-0.006001674,-0.147595635,-0.068221412,0.497695439,-0.473682028
397763.75,0.830508,-0.174057,-0.139363,-0.483007,-0.295638,0.371337,-0.000243421,-0.005389911,-0.140097498,-0.110965427,0.480743452,-0.46385468
397773.625,0.84982,-0.175524,-0.130812,-0.476616,-0.319468,0.320402,0.005735563,0.000100742,-0.122457078,-0.155057678,0.458576513,-0.444460071
397783.5,0.868398,-0.176746,-0.122994,-0.472143,-0.340853,0.291296,0.009971733,0.006733942,-0.105384453,-0.183877566,0.450787761,-0.432356999
397793.375,0.881109,-0.167701,-0.116152,-0.461917,-0.355518,0.260978,0.021715225,0.003070074,-0.09585012,-0.208426259,0.439150369,-0.414216523
397803.25,0.877686,-0.173323,-0.097584,-0.44594,-0.367738,0.234904,0.026884394,0.017547738,-0.100630487,-0.227640672,0.429274411,-0.391378095
397813.125,0.879642,-0.179191,-0.086589,-0.432519,-0.377514,0.194278,0.030109025,0.029649736,-0.099116291,-0.257421458,0.404611556,-0.370617226
397875,0.936598,-0.126386,-0.020132,-0.325792,-0.378736,0.159109,-0.006212418,-0.000932334,-0.054719582,-0.387505851,0.217985815,-0.277882095
397884.875,0.963731,-0.109029,-0.005717,-0.309175,-0.37507,0.224596,0.012216698,0.008295756,-0.030216839,-0.369528848,0.28349901,-0.264171896
397894.75,0.991354,-0.099739,0.007233,-0.28489,-0.367738,0.312519,0.023775097,0.016555489,-0.004036347,-0.343546969,0.370490808,-0.242432908
397904.625,1.011643,-0.097783,0.013341,-0.277221,-0.353073,0.408325,0.025763501,0.019677582,0.015928192,-0.310730965,0.463825279,-0.237810238
397914.5,1.035109,-0.09265,0.015051,-0.271469,-0.347574,0.476238,0.031217095,0.017519604,0.038739502,-0.291604989,0.531103393,-0.232812053
397924.375,1.050265,-0.088983,0.019205,-0.265718,-0.329855,0.572044,0.034947532,0.018022922,0.053469136,-0.255530601,0.623693418,-0.228812908
397934.25,1.065665,-0.093139,0.015051,-0.268274,-0.299915,0.668456,0.028429992,0.013524252,0.069369968,-0.207592252,0.714337979,-0.235329723
397944.125,1.072998,-0.100473,0.004545,-0.274026,-0.270586,0.749103,0.020242075,0.004317994,0.077502576,-0.165589102,0.7888237,-0.244539888
398006,1.185932,-0.111962,-0.009626,-0.345603,-0.093391,0.924949,-0.001220769,-0.004977592,0.191233223,-0.042789407,0.931128277,-0.338914685
398015.875,1.225044,-0.111962,-0.007916,-0.350716,-0.072005,0.906152,-0.000384976,0.001442198,0.230174267,-0.019703313,0.909223497,-0.349603048
398025.75,1.23751,-0.107318,-0.006938,-0.358385,-0.054897,0.881897,0.000887668,0.0006022,0.242173554,-0.001090418,0.883901024,-0.357650106
398035.625,1.246799,-0.097783,-0.006694,-0.372445,-0.034122,0.8346,0.006195003,0.00352044,0.250625163,0.01829018,0.833708704,-0.375542294
398045.5,1.275888,-0.089472,-0.011581,-0.36925,-0.019458,0.769113,0.0103858,0.001393101,0.279030782,0.031132844,0.765924496,-0.375032526
398055.375,1.321111,-0.086538,-0.01549,-0.366693,0.001928,0.698774,0.010290473,0.002613448,0.323990301,0.049518852,0.692072027,-0.375947828
398065.25,1.356555,-0.083116,-0.022087,-0.359024,0.024535,0.619341,0.015045004,0.005558746,0.359183697,0.066324936,0.607840485,-0.373114487
398075.125,1.3678,-0.088494,-0.032348,-0.351355,0.042255,0.555672,0.009408601,-0.003884898,0.371003577,0.077417154,0.542698549,-0.365365655
398137,1.341155,-0.162078,-0.122505,-0.401843,0.138185,0.091802,0.009424526,0.005497606,0.356412342,0.100558036,-0.012246037,-0.422774898
398146.875,1.321111,-0.164034,-0.132767,-0.422294,0.144295,0.050569,0.00569763,0.005673968,0.337835508,0.074894009,-0.051521714,-0.439825981
398156.75,1.305222,-0.163789,-0.141807,-0.455526,0.163847,0.014794,-0.015295578,0.008210077,0.322966051,0.067485375,-0.095902995,-0.469911671
398166.625,1.310355,-0.136654,-0.141562,-0.484924,0.170569,0.011762,-0.008924174,-0.005148955,0.325004977,0.071779668,-0.104381514,-0.498332813
398176.5,1.394444,-0.102917,-0.126414,-0.511766,0.180956,0.031165,0.022469724,-0.006717225,0.403743733,0.093397667,-0.098905717,-0.526417425
398186.375,1.442111,-0.081649,-0.132767,-0.542442,0.186455,0.060271,0.024851454,-0.017406618,0.450192121,0.117473444,-0.083513,-0.558450493
398196.25,1.4646,-0.078715,-0.1335,-0.557141,0.194398,0.069973,0.013710143,-0.010228555,0.472677449,0.133491441,-0.08565821,-0.572656619
398206.125,1.4514,-0.093872,-0.13521,-0.56481,0.187677,0.054814,-0.000463381,-0.002316763,0.460701912,0.117956056,-0.093324223,-0.57845875
398267,1.392,-0.085805,-0.152557,-0.602516,0.122909,-0.170148,-0.012954532,0.016759304,0.402801284,-0.158210834,-0.19660172,-0.586003063
398277,1.410822,-0.068203,-0.152313,-0.598043,0.114966,-0.215626,0.002373469,0.015320352,0.42057357,-0.204043816,-0.215958814,-0.573668105
398287,1.410822,-0.063314,-0.156711,-0.606351,0.119854,-0.256859,-0.007619915,-0.000137599,0.420889733,-0.236495436,-0.235071301,-0.580357179
398297,1.397378,-0.061358,-0.15329,-0.600599,0.1113,-0.304155,0.004237196,0.003431676,0.407088545,-0.286460878,-0.249815258,-0.56670064
398307,1.374155,-0.063558,-0.154512,-0.603155,0.100302,-0.359334,-0.001961208,-0.006137949,0.384259376,-0.341172383,-0.25977894,-0.564883772
398317,1.364378,-0.062336,-0.153779,-0.59996,0.095413,-0.415726,-0.0134321,0.014222342,0.374291959,-0.389523367,-0.287996971,-0.554268022
398327,1.366333,-0.045712,-0.149625,-0.598043,0.092358,-0.459991,-0.018137545,0.018276619,0.375020032,-0.424959048,-0.309906457,-0.548766749
398337,1.360711,-0.020777,-0.139119,-0.59293,0.089303,-0.486671,0.001905022,0.000607519,0.367960601,-0.449478736,-0.319067704,-0.540882925
398399,1.292999,0.00367,-0.104425,-0.558419,0.162625,-0.778333,-0.00897925,0.02306983,0.296977879,-0.823197192,-0.140111004,-0.496785888
398408.875,1.296666,0.022494,-0.092697,-0.542442,0.184011,-0.816534,-0.00866083,0.025260423,0.299895508,-0.857637821,-0.163568025,-0.482217807
398418.75,1.286888,0.041318,-0.079503,-0.533495,0.208452,-0.863225,-0.010235564,0.021924945,0.289776399,-0.900630497,-0.187511758,-0.476372333
398428.625,1.300822,0.052074,-0.06973,-0.512405,0.23717,-0.91234,-0.014239902,0.020428303,0.30349214,-0.945869475,-0.211708838,-0.460090288
398438.5,1.308155,0.059164,-0.058247,-0.501541,0.265276,-0.965094,-0.000736008,0.012877769,0.310723547,-1.001223078,-0.231850509,-0.443980685
398448.375,1.306444,0.06552,-0.057514,-0.489398,0.280552,-1.012391,-0.008644128,0.006163349,0.309306667,-1.047010677,-0.239108794,-0.435604168
398458.25,1.300333,0.056474,-0.052627,-0.486842,0.317213,-1.080304,-0.010089095,0.014476285,0.302502772,-1.115832225,-0.266438028,-0.434309998
398468.125,1.27931,0.039851,-0.043832,-0.481729,0.347153,-1.153068,-0.000946402,0.029344189,0.280344268,-1.190220506,-0.290970151,-0.425270932
398529,1.15831,0.027383,-0.037479,-0.441466,0.588505,-1.689095,0.008027017,0.009639966,0.159171773,-1.728116673,0.524070241,-0.365014286
398539,1.137532,0.025427,-0.038212,-0.413986,0.624555,-1.801879,0.005982983,0.022468832,0.138220144,-1.836593842,0.564808429,-0.340787009
398549,1.135576,0.013937,-0.036991,-0.408234,0.656939,-1.907993,0.01349645,0.042207556,0.135399398,-1.938841147,0.60468793,-0.337503554
398559,1.133376,-0.005375,-0.033326,-0.384588,0.691767,-2.000161,0.037718185,0.068291546,0.131191528,-2.033130158,0.635083807,-0.300239667
398569,1.109665,-0.016132,-0.099783,-0.373084,0.732705,-2.108701,-0.006958105,0.128643981,0.106786164,-2.142822138,0.670215307,-0.28599462
398579,1.075932,-0.031778,-0.049451,-0.346882,0.78403,-2.229367,0.043823402,0.122517147,0.069651331,-2.267397837,0.705639621,-0.257074226
398589,1.04122,-0.031044,-0.044565,-0.337295,0.840244,-2.335481,0.048355624,0.130971589,0.033245873,-2.384259294,0.727667254,-0.245066079
398599,1.017509,-0.034711,-0.040167,-0.316845,0.884237,-2.440383,0.052584211,0.129394533,0.009274374,-2.492904991,0.758120087,-0.220031029
398661,0.871331,-0.164278,-0.051161,-0.108502,1.214798,-3.043717,-0.019243273,-0.003919192,-0.112060387,0.228469815,-3.266832002,-0.165318642
398671,0.852997,-0.184813,-0.053605,-0.071435,1.259402,-3.141342,-0.062515397,-0.001949598,-0.127806646,0.247751914,-3.373431331,-0.133438978
398681,0.824642,-0.213905,-0.065332,-0.038203,1.300951,-3.250488,-0.117857011,-0.006185465,-0.153755643,0.259997391,-3.490143569,-0.104424315
398691,0.795553,-0.25033,-0.077793,0.007172,1.338223,-3.331135,-0.18013605,-0.009077547,-0.18202076,0.277794643,-3.57855393,-0.06430033
398701,0.758153,-0.277466,-0.08439,0.049991,1.388327,-3.442706,-0.232091721,-0.009538821,-0.22221631,0.29735706,-3.700388474,-0.029656039
398711,0.690197,-0.300201,-0.079992,0.084502,1.45065,-3.571255,-0.276970413,-0.00014216,-0.295600519,0.323121151,-3.842000517,-0.003610033
398721,0.633974,-0.295312,-0.079992,0.143937,1.503809,-3.68889,-0.293251497,-0.002881419,-0.360057669,0.343651324,-3.971087771,0.049340476
398731,0.632996,-0.283333,-0.08268,0.181643,1.541692,-3.765293,-0.282631753,-0.008976681,-0.361379441,0.357881744,-4.056100609,0.084901622
398793,0.36704,-0.384542,-0.092453,0.473706,1.698113,-4.170345,-0.017941456,-0.002461911,-0.460731503,0.807338543,-4.451975768,-0.166969425
398802.875,0.305928,-0.391631,-0.111999,0.518442,1.677949,-4.186717,-0.085566297,-0.022583509,-0.498323858,0.823927082,-4.463157443,-0.119431974
398812.75,0.293217,-0.489907,-0.145227,0.575321,1.641288,-4.169133,-0.187667841,-0.034624713,-0.442633092,0.841760025,-4.437997278,-0.045942807
398822.625,0.279528,-0.466682,-0.177723,0.613027,1.589963,-4.126687,-0.202358764,-0.073753534,-0.469787964,0.839050097,-4.385091603,0.017222222
398832.5,0.243595,-0.466193,-0.180166,0.644981,1.538637,-4.078177,-0.240781611,-0.07801059,-0.504951731,0.83220737,-4.32627336,0.075641672
398842.375,0.196661,-0.43808,-0.185297,0.675018,1.500754,-4.0327,-0.26211501,-0.090719662,-0.566421543,0.83321684,-4.273316647,0.122864529
398852.25,0.164394,-0.465216,-0.198735,0.710168,1.460427,-3.995712,-0.317220971,-0.099870503,-0.58485707,0.83223498,-4.228386432,0.176162182
398862.125,0.133105,-0.49993,-0.221213,0.726145,1.426821,-3.945383,-0.366993867,-0.113834828,-0.588977774,0.823664167,-4.172473798,0.202956856
398923,-0.154852,-0.564713,-0.346797,0.554231,1.118868,-2.717492,-0.010004451,-0.004125497,-0.319536214,0.64922473,-2.901458579,0.322251047
398933,-0.184674,-0.611651,-0.375628,0.528028,1.069986,-2.497988,-0.036834363,-0.007988732,-0.259799192,0.609460105,-2.688521386,0.253058875
398943,-0.222319,-0.64612,-0.397128,0.506299,1.027826,-2.297887,-0.074200098,-0.010825218,-0.213244256,0.574151321,-2.495260682,0.192546149
398953,-0.263385,-0.637564,-0.410811,0.471149,1.00033,-2.080808,-0.121902379,-0.028438975,-0.206932396,0.521529518,-2.29503144,0.115069873
398963,-0.292719,-0.636831,-0.424493,0.42897,0.970391,-1.901323,-0.155253115,-0.041083277,-0.196482062,0.465507643,-2.126115136,0.06033381
398973,-0.319363,-0.629497,-0.434022,0.373369,0.935563,-1.649681,-0.185404002,-0.052960357,-0.194112383,0.38934276,-1.893121941,-0.02512907
398983,-0.376564,-0.645631,-0.453079,0.305626,0.900735,-1.380455,-0.239604512,-0.060187773,-0.161616124,0.299333444,-1.645292833,-0.117463954
398993,-0.426186,-0.638297,-0.469449,0.248747,0.85002,-1.109409,-0.288082177,-0.078277603,-0.151282611,0.225913237,-1.386884557,-0.201771736
399055,-0.315208,-0.719216,-0.471159,-0.143652,0.592171,-0.419365,0.004396592,0.000872907,-0.084249789,-0.228164853,-0.675169833,-0.19813099
399065,-0.353341,-0.733639,-0.476535,-0.164103,0.551844,-0.463629,-0.022225298,0.004284117,-0.056787758,-0.228262603,-0.689839337,-0.135761987
399075,-0.379742,-0.756863,-0.487041,-0.171133,0.520682,-0.516383,-0.033366806,0.011727812,-0.023780948,-0.215968654,-0.717134053,-0.078255624
399085,-0.427408,-0.773487,-0.518803,-0.181358,0.466301,-0.567924,-0.061985602,-0.002774146,0.022871634,-0.198858247,-0.730282487,-0.002811189
399095,-0.458697,-0.747818,-0.501945,-0.206922,0.422919,-0.598243,-0.097497311,0.000314414,0.006020704,-0.202457618,-0.731501001,0.05906843
399105,-0.469942,-0.732417,-0.49999,-0.245906,0.378315,-0.620678,-0.108442978,-0.003918297,-0.002255086,-0.218741708,-0.725240106,0.122523607
399115,-0.467497,-0.714815,-0.48533,-0.288725,0.341043,-0.647358,-0.110498893,-0.000105698,-0.023860091,-0.239093389,-0.726634186,0.18325377
399125,-0.479964,-0.708704,-0.471159,-0.307258,0.306826,-0.687985,-0.126908214,0.008228801,-0.031266705,-0.237197968,-0.741051254,0.237598815
399188,-0.706076,-0.736328,-0.448681,-0.303424,0.01537,-0.496373,-0.000502003,-0.008749902,0.114432622,-0.0780281,-0.43514787,0.378479145
399198,-0.719765,-0.75173,-0.43451,-0.28489,-0.024957,-0.413301,-0.007952933,0.001904848,0.127781766,-0.068511687,-0.346255543,0.357793415
399208,-0.717321,-0.75833,-0.419118,-0.261883,-0.06895,-0.345388,-0.007783022,0.008655886,0.124783625,-0.049005841,-0.268224985,0.343923631
399218,-0.707787,-0.756374,-0.401526,-0.215869,-0.114166,-0.296879,-0.004869477,0.013358104,0.110893804,-0.004205835,-0.20521284,0.325023757
399228,-0.698987,-0.742684,-0.38931,-0.162825,-0.166102,-0.251401,-0.002108964,0.009848846,0.091614941,0.051559971,-0.140010313,0.308290447
399238,-0.701676,-0.727772,-0.379293,-0.127675,-0.21865,-0.192584,-0.003428331,0.008368735,0.079714168,0.090004228,-0.061911301,0.29877007
399248,-0.698499,-0.703325,-0.37465,-0.082939,-0.262032,-0.128915,-0.002122389,-0.000151833,0.059681558,0.128696519,0.016981211,0.274422245
399258,-0.701432,-0.693302,-0.371718,-0.049706,-0.318245,-0.036141,-0.010916185,-0.002796326,0.053907872,0.151274667,0.126804009,0.257086477
399321,-0.592165,-0.685724,-0.357792,0.101118,-0.635364,0.78124,-0.0014597,-0.002454885,-0.025893358,0.202037411,0.986458266,0.101632545
399331,-0.546453,-0.672278,-0.350218,0.131155,-0.667137,0.82975,0.024938398,-0.002455463,-0.065872982,0.228285342,1.044379519,0.088970197
399341,-0.511009,-0.660299,-0.350462,0.14202,-0.696465,0.846728,0.046217998,-0.008951534,-0.095714455,0.24668449,1.073169919,0.098155843
399351,-0.478986,-0.650032,-0.34582,0.141381,-0.714185,0.858249,0.06449645,-0.01007581,-0.124043752,0.251098003,1.091761951,0.107915631
399361,-0.445986,-0.632675,-0.338734,0.128599,-0.723961,0.873408,0.079354396,-0.011601341,-0.158875646,0.240307775,1.109955051,0.117263488
399371,-0.424475,-0.634142,-0.346308,0.095366,-0.733126,0.889173,0.09934521,-0.017303149,-0.16808927,0.212348076,1.128282368,0.138145658
399381,-0.380719,-0.646365,-0.359013,0.051909,-0.748402,0.908577,0.144006534,-0.022463753,-0.181231106,0.177981293,1.152479258,0.168601547
399391,-0.335252,-0.673501,-0.372696,0.015481,-0.756956,0.901907,0.198587758,-0.021528666,-0.184525152,0.155442669,1.150151255,0.199117933
399453,-0.262652,-0.695991,-0.328228,-0.057375,-0.986699,0.646021,-0.000816998,0.000894027,-0.186906095,0.137910946,1.006747016,0.601374223
399463,-0.24383,-0.69648,-0.333115,-0.067601,-1.038635,0.663605,0.018921765,-0.00028891,-0.190589754,0.134596045,1.047988816,0.638206472
399473,-0.228919,-0.691591,-0.34582,-0.059932,-1.089961,0.707264,0.034657197,-0.011278768,-0.194416261,0.143310966,1.112473041,0.658555155
399483,-0.21523,-0.705037,-0.360479,-0.068879,-1.139453,0.763656,0.05485272,-0.016459598,-0.181424106,0.132785248,1.18688332,0.678191717
399493,-0.183941,-0.717993,-0.375872,-0.06824,-1.177336,0.815197,0.092176208,-0.022002387,-0.174380571,0.1280693,1.251780866,0.686997687
399503,-0.165607,-0.727772,-0.385889,-0.065044,-1.224996,0.870982,0.11594899,-0.024196837,-0.168159614,0.127169804,1.324855901,0.701455808
399513,-0.151429,-0.733884,-0.394929,-0.055458,-1.25738,0.915854,0.135043843,-0.027038551,-0.16422643,0.129422396,1.381619711,0.705156309
399523,-0.127229,-0.735839,-0.40397,-0.054819,-1.28182,0.96315,0.160064187,-0.033220927,-0.166865053,0.128107537,1.434836624,0.706086312
399585,0.102061,-0.73804,-0.409589,-0.185193,-1.443129,1.553751,0.008650437,-0.001349623,-0.149820027,-0.249949966,2.056849068,0.487808213
399595,0.132127,-0.758086,-0.4091,-0.173689,-1.464515,1.582856,0.046547675,0.006274126,-0.129765154,-0.244142108,2.08985492,0.503295356
399605,0.107194,-0.756619,-0.410322,-0.16602,-1.477957,1.576793,0.029463442,0.004616168,-0.133144992,-0.244436245,2.089915146,0.520289634
399615,0.104261,-0.742684,-0.403481,-0.158351,-1.475513,1.553751,0.03495402,0.007108957,-0.149133103,-0.244058508,2.069236033,0.524455438
399625,0.12455,-0.725816,-0.404214,-0.166659,-1.475513,1.534953,0.063579705,0.000837866,-0.162344077,-0.258921769,2.052409389,0.530631477
399635,0.198372,-0.730461,-0.401038,-0.176885,-1.463903,1.541623,0.144384257,0.010132513,-0.155721184,-0.273392192,2.052096735,0.514837323
399645,0.280995,-0.748063,-0.401771,-0.207561,-1.446184,1.581037,0.233376352,0.022897022,-0.136873368,-0.307707476,2.076305912,0.4779933
399655,0.332817,-0.763464,-0.393219,-0.208839,-1.422965,1.581037,0.284050943,0.039682115,-0.124782308,-0.307472056,2.064970056,0.457690635
399717,0.39564,-0.772265,-0.380026,-0.088691,-1.260435,1.123231,0.003525388,0.004270654,-0.052733758,-0.3513404,1.56506755,0.5341665
399727,0.402484,-0.768598,-0.379048,-0.101472,-1.220718,1.172346,0.017229562,0.002416408,-0.053368633,-0.343420376,1.589269364,0.480759274
399737,0.423018,-0.781799,-0.376361,-0.104029,-1.19139,1.192963,0.035594434,0.01342968,-0.035451304,-0.336086317,1.594564062,0.444751979
399747,0.445751,-0.773732,-0.381247,-0.107224,-1.170004,1.223281,0.06290215,0.007606097,-0.031139895,-0.330528452,1.611655853,0.412479217
399757,0.461151,-0.759553,-0.368298,-0.113615,-1.146174,1.222068,0.0882287,0.015657372,-0.042297037,-0.331950807,1.599601904,0.38878762
399767,0.460907,-0.760286,-0.375139,-0.122562,-1.111957,1.2251,0.090630956,0.01290813,-0.039365447,-0.330269595,1.58710162,0.352661687
399777,0.450884,-0.75393,-0.381003,-0.139178,-1.062465,1.279067,0.087009345,0.007424337,-0.046456941,-0.321641647,1.613190979,0.279957672
399787,0.425462,-0.737306,-0.375383,-0.153877,-1.015417,1.331214,0.070422694,0.004307774,-0.072329512,-0.310492391,1.638530679,0.213757383
399851,0.628352,-0.723127,-0.365366,-0.182636,-0.77712,1.852083,0.031968753,0.001955993,0.024795287,-0.059833022,2.003215906,-0.225895739
399861,0.550374,-0.711148,-0.368053,-0.171772,-0.744736,1.839955,0.004559002,-0.010547147,-0.028416755,-0.039663273,1.978945771,-0.227535034
399871,0.564063,-0.71946,-0.357792,-0.148765,-0.722739,1.856934,0.022600961,0.00714033,-0.018550517,-0.002940704,1.982843539,-0.247000848
399881,0.565041,-0.685724,-0.359746,-0.120645,-0.707464,1.821765,0.046382443,-0.008862927,-0.042567998,0.021368114,1.944114656,-0.232055705
399891,0.615885,-0.680101,-0.358769,-0.091247,-0.696465,1.792053,0.098743381,-0.008819385,-0.019827126,0.045858528,1.911925625,-0.217441639
399901,0.658908,-0.65101,-0.369764,-0.063127,-0.689744,1.769011,0.152972854,-0.030629383,-0.014931304,0.069103379,1.887688497,-0.202456372
399911,0.681641,-0.617762,-0.365855,-0.04012,-0.678746,1.776287,0.196307432,-0.04147939,-0.030537739,0.098373028,1.888315209,-0.205157677
399921,0.723686,-0.589649,-0.371718,-0.027977,-0.664081,1.8442,0.24357752,-0.060075982,-0.027044446,0.132695422,1.94150182,-0.23626793
399983,0.77453,-0.533911,-0.307949,0.049352,-0.64514,1.604685,0.004607943,-0.000946634,-0.010167623,0.221377914,1.71233667,-0.112027386
399993,0.847864,-0.521932,-0.307705,0.086419,-0.628642,1.514337,0.063135529,-0.007331191,0.040158113,0.221158741,1.625687706,-0.064061297
400003,0.865709,-0.505552,-0.305261,0.097284,-0.606035,1.482806,0.090741314,-0.015148558,0.043913651,0.231660651,1.587007553,-0.056538505
400013,0.893575,-0.49504,-0.292801,0.098562,-0.587093,1.463402,0.124743327,-0.012067682,0.055256737,0.238458891,1.560694626,-0.057512734
400023,0.927798,-0.500908,-0.28767,0.089615,-0.574262,1.450062,0.148728625,-0.007509194,0.082725907,0.236752841,1.542808951,-0.064622968
400033,0.92242,-0.507264,-0.284249,0.091532,-0.563264,1.396096,0.145303934,-0.003170915,0.080670916,0.224587478,1.490549246,-0.050516242
400043,0.872553,-0.51362,-0.289869,0.097284,-0.554098,1.295439,0.108388852,-0.004617748,0.04757282,0.195049892,1.398647818,-0.019768533
400053,0.841997,-0.503597,-0.292801,0.115817,-0.548599,1.179016,0.094272558,-0.011858437,0.019447583,0.165695324,1.294691966,0.027765836
400114,0.960553,-0.4085,-0.244424,0.074916,-0.51927,1.168102,0.025819674,-0.004773846,0.071721961,0.17142336,1.268987793,0.000188741
400124,0.927553,-0.402877,-0.238805,0.066608,-0.521103,1.14506,0.018050705,-0.00063848,0.038925424,0.155419028,1.250191745,-0.003590623
400134,0.905309,-0.391876,-0.23514,0.083863,-0.524158,1.118986,0.019458551,0.002266786,0.013932064,0.14888533,1.229465273,0.012352379
400144,0.889175,-0.36694,-0.237339,0.088976,-0.538823,1.091093,0.031759762,-0.00685579,-0.009772117,0.126958587,1.213306099,0.022376689
400154,0.883553,-0.33516,-0.242225,0.101757,-0.553487,1.081391,0.052261916,-0.024553845,-0.026174101,0.117153779,1.21281903,0.038129156
400164,0.927309,-0.316336,-0.238316,0.097923,-0.560208,1.132326,0.090924107,-0.029806226,0.003797469,0.13322157,1.259874217,0.023517172
400174,0.976931,-0.295067,-0.222435,0.098562,-0.571207,1.217217,0.140386394,-0.027016236,0.034648648,0.163673119,1.33819694,0.007013503
400184,0.999909,-0.288467,-0.21144,0.090254,-0.577928,1.268152,0.161239046,-0.020767988,0.049432586,0.177609423,1.385171501,-0.01052899
400245,1.045376,-0.20926,-0.210707,0.096006,-0.521714,1.183867,0.003808713,-0.008474899,0.086697676,0.481634659,1.204213152,-0.029025228
400255,1.069821,-0.210971,-0.210218,0.056382,-0.511938,1.269365,0.018677297,-0.021772842,0.110132625,0.536785898,1.25819875,-0.073100995
400265,1.071043,-0.225639,-0.201911,0.011646,-0.492996,1.316661,0.039243588,-0.009942418,0.11228378,0.568139009,1.278823522,-0.136401398
400275,1.011643,-0.228573,-0.199224,-0.020308,-0.484442,1.28028,0.031847444,0.001335762,0.055623671,0.539607376,1.246092094,-0.174045156
400285,0.952242,-0.214149,-0.212417,-0.027338,-0.480165,1.212973,0.015322806,-0.014291153,-0.001347619,0.496389952,1.194466365,-0.171628698
400295,0.964465,-0.208771,-0.207775,-0.045233,-0.472833,1.140815,0.026633939,-0.01231903,0.008011603,0.448332648,1.137643392,-0.178441264
400305,0.994287,-0.185791,-0.209485,-0.049067,-0.46489,1.057137,0.050456009,-0.028135809,0.031344495,0.397454936,1.072247741,-0.168473367
400315,1.021665,-0.149121,-0.202644,-0.07527,-0.456946,1.03652,0.088007301,-0.049953536,0.047311031,0.380338715,1.052531716,-0.190678734
400377,0.978642,-0.108784,-0.179922,-0.316845,-0.38118,1.128688,-0.001323951,-0.001541743,0.000970489,0.689702885,0.907771947,-0.468919577
400386.875,0.998687,-0.104873,-0.179433,-0.32004,-0.36285,1.034701,0.003705683,-0.006290814,0.020057334,0.624002883,0.841535264,-0.455116122
400396.75,1.045865,-0.089716,-0.171126,-0.341769,-0.353685,1.011659,0.026614726,-0.018269552,0.063073161,0.609404714,0.820184987,-0.470399343
400406.625,1.111376,-0.052313,-0.141807,-0.370528,-0.344519,1.054105,0.082443095,-0.04193141,0.117786823,0.648890034,0.832723081,-0.502628775
400416.5,1.170288,-0.048157,-0.125437,-0.412708,-0.337187,1.181442,0.110088107,-0.047249415,0.171868441,0.757334154,0.890318733,-0.560005088
400426.375,1.225777,-0.074804,-0.113465,-0.461917,-0.331688,1.249355,0.118895186,-0.030919632,0.227154069,0.813281781,0.920838211,-0.612292326
400436.25,1.193999,-0.107807,-0.105402,-0.479812,-0.336576,1.204484,0.103742759,-0.008723135,0.198969095,0.774337127,0.904352606,-0.613867284
400446.125,1.097443,-0.124186,-0.121528,-0.479812,-0.340242,1.175985,0.062361696,0.00172966,0.109360348,0.748184699,0.893559593,-0.608847932
400545,1.075687,-0.006598,-0.077549,-0.065683,-0.378736,0.918279,0.014238877,-0.009340121,0.078364465,0.87446531,0.455606034,-0.136839687
400555,1.021909,-0.008798,-0.095873,-0.026699,-0.374459,0.88311,0.003723385,-0.011377696,0.026364324,0.842283346,0.447847749,-0.103955809
400565,1.004554,-0.000486,-0.113465,0.008451,-0.368349,0.859462,-0.006074305,-0.018766485,0.010749328,0.822298646,0.438924948,-0.074814179
400575,1.01482,0.001959,-0.109556,0.041683,-0.35674,0.854611,-0.003076027,-0.02074455,0.02050291,0.822184888,0.426363714,-0.039835347
400585,1.061998,0.019071,-0.089276,0.05766,-0.338409,0.90312,0.02082627,-0.037246255,0.065059924,0.873611356,0.411762013,-0.02695004
400595,1.11211,0.05623,-0.068509,0.065329,-0.317023,0.963756,0.046124816,-0.075636988,0.112113077,0.936421144,0.3952561,-0.022025998
400605,1.137777,0.05183,-0.058003,0.073637,-0.307858,1.017117,0.05504156,-0.073978294,0.136699097,0.991017101,0.390373714,-0.014812696
400615,1.136799,0.051096,-0.052383,0.084502,-0.289528,1.066232,0.060464265,-0.07276358,0.135216402,1.042273389,0.376035234,-0.009022939
400676,1.107465,0.122969,-0.065821,0.195703,-0.203985,1.087455,-0.009966402,0.002297103,0.116166609,0.71188451,-0.861568634,0.115705893
400685.875,1.145599,0.134459,-0.054582,0.185478,-0.186266,1.122624,-0.013682182,-0.010479066,0.154624819,0.712413498,-0.899916242,0.109542334
400695.75,1.160999,0.139837,-0.051894,0.193786,-0.171601,1.129294,-0.014755764,-0.014492009,0.170358193,0.70472807,-0.911834221,0.119254167
400705.625,1.157577,0.133726,-0.055315,0.182921,-0.152049,1.104433,-0.014454456,-0.023466042,0.166262113,0.675415648,-0.89986638,0.102007077
400715.5,1.14731,0.119547,-0.061179,0.18356,-0.139828,1.05653,-0.00525714,-0.008788398,0.155097276,0.64331255,-0.862514309,0.108258087
400725.375,1.126776,0.128347,-0.061179,0.198259,-0.128219,0.961937,-0.011427811,-0.012294645,0.135587171,0.591566238,-0.784071613,0.127869567
400735.25,1.10551,0.144971,-0.063378,0.212319,-0.117832,0.895237,-0.025389526,-0.016437676,0.116365037,0.554177939,-0.729373649,0.145992866
400745.125,1.102087,0.15255,-0.061912,0.227018,-0.100112,0.810346,-0.031700833,-0.021352917,0.11366039,0.500054777,-0.663430101,0.167409514
400805,1.146332,0.16844,-0.085367,0.154802,-0.033511,0.599937,-0.005926472,-0.014035111,0.161681757,0.322270319,-0.520883719,0.099161699
400815,1.143643,0.16135,-0.096851,0.146493,-0.023124,0.533843,-0.01383417,-0.014553262,0.158848596,0.281899579,-0.46758627,0.094228314
400825,1.146088,0.151083,-0.10076,0.122208,-0.015792,0.497461,-0.000436213,-0.000117184,0.160386207,0.256066659,-0.437471076,0.075502004
400835,1.152199,0.151816,-0.102226,0.096006,-0.009682,0.468355,-0.012357395,0.005939218,0.166564533,0.233133177,-0.413589347,0.057097049
400845,1.171754,0.150349,-0.089032,0.067886,-0.004182,0.45259,-0.007227537,0.002986783,0.184684683,0.216938945,-0.401473071,0.034936711
400855,1.200354,0.15475,-0.084146,0.027623,-0.001738,0.451377,0.004451034,-0.00254428,0.213198892,0.208367166,-0.401318679,-0.005804211
400865,1.229688,0.165995,-0.090498,-0.006248,0.004983,0.444101,0.002673948,-0.008777668,0.244103134,0.193624531,-0.397636859,-0.041036997
400875,1.25071,0.174796,-0.103936,-0.047789,0.014148,0.431367,-0.007859451,-0.001052924,0.267110476,0.173449696,-0.390000738,-0.079850298
400935,1.376355,0.146193,-0.128124,-0.324514,0.083193,0.137279,0.001191676,0.015739909,0.389925204,-0.018581564,-0.161682314,-0.323402984
400945,1.390044,0.150838,-0.126658,-0.366054,0.084415,0.006304,0.003078587,0.001664895,0.40392465,-0.111298227,-0.061061701,-0.353617501
400955,1.393222,0.149372,-0.133744,-0.387144,0.091136,-0.147713,0.001834424,-0.001572919,0.407572788,-0.219254436,0.054301082,-0.359143791
400965,1.390044,0.136659,-0.146449,-0.395452,0.090525,-0.292634,0.004407662,0.008043939,0.404372166,-0.313183339,0.1678513,-0.35207081
400975,1.373911,0.128347,-0.149625,-0.405678,0.08747,-0.484246,0.008038961,0.009095946,0.387928193,-0.43464182,0.318780155,-0.340859987
400985,1.338711,0.111968,-0.154756,-0.413347,0.070362,-0.669794,0.013033396,0.019042548,0.352072818,-0.540161532,0.474248717,-0.328244161
400995,1.319888,0.10439,-0.154267,-0.406956,0.061196,-0.84564,0.017594624,0.020024684,0.332700024,-0.642661135,0.617057879,-0.301150106
401005,1.312066,0.107079,-0.153534,-0.408873,0.046532,-0.964488,0.014864661,0.01791596,0.325146728,-0.707170172,0.717462431,-0.291097005
401066,1.309377,0.133481,-0.126903,-0.34113,-0.013959,-1.642405,0.02253365,0.005968518,0.322061378,-1.158932465,1.201228695,-0.167283831
401076,1.292755,0.12957,-0.136187,-0.346882,-0.012126,-1.707893,0.020016238,0.022817919,0.305997499,-1.204024032,1.24854143,-0.169832537
401086,1.290555,0.121747,-0.131056,-0.353272,0.001317,-1.761253,0.032453376,0.033041507,0.302069604,-1.248937463,1.279321769,-0.174086174
401096,1.300088,0.121747,-0.12617,-0.379475,0.020869,-1.811581,0.04097552,0.04062735,0.31058782,-1.299123957,1.303298679,-0.199879985
401106,1.322333,0.119302,-0.116152,-0.401204,0.04531,-1.872218,0.05787717,0.045092542,0.330753814,-1.358930306,1.332043513,-0.21722428
401116,1.329177,0.111479,-0.116152,-0.422294,0.069751,-1.920121,0.070113531,0.060959554,0.335664021,-1.409834575,1.351718482,-0.235129102
401126,1.332355,0.102923,-0.11151,-0.454887,0.099691,-1.998342,0.08608188,0.074592935,0.336122477,-1.486983312,1.389614952,-0.260925551
401136,1.316955,0.094367,-0.106379,-0.475338,0.140629,-2.082021,0.092979351,0.075838256,0.319164695,-1.576079265,1.423044216,-0.267307844
401197,1.321355,0.040829,-0.056048,-0.633193,0.349597,-2.293642,0.005218323,0.015273043,0.323074799,-2.086558132,1.072768021,-0.528572604
401207,1.310355,0.017849,-0.056048,-0.635749,0.372204,-2.369438,0.025612525,0.048700257,0.310519925,-2.158160937,1.104699725,-0.528137228
401217,1.278577,2.88E-06,-0.057514,-0.63511,0.398478,-2.443415,0.039952386,0.078666889,0.276825099,-2.229909674,1.132836073,-0.525938751
401227,1.246799,-0.009042,-0.052139,-0.623606,0.406421,-2.491318,0.054381429,0.096994704,0.242957227,-2.269067434,1.160415626,-0.515263433
401237,1.24191,-0.021021,-0.050184,-0.603794,0.419864,-2.524668,0.068664372,0.121385728,0.235253607,-2.29874426,1.175262479,-0.499333972
401247,1.256821,-0.034711,-0.036746,-0.590374,0.428418,-2.541646,0.094585881,0.141596918,0.246257587,-2.313002509,1.183512185,-0.491290274
401257,1.265377,-0.052313,-0.028195,-0.561615,0.438194,-2.556805,0.119336279,0.167548822,0.249958721,-2.325629074,1.190889644,-0.466806668
401267,1.270755,-0.078471,-0.026729,-0.531578,0.43575,-2.5944,0.13697957,0.187534731,0.252101326,-2.351067999,1.218647308,-0.436740878
401338,1.131421,-0.197281,-0.042121,-0.185832,0.419253,-2.985506,-0.02239739,0.005917358,0.149030371,-0.243048106,-3.007709515,-0.134773053
401348,1.122132,-0.203637,-0.045542,-0.146208,0.413143,-3.036441,-0.052247191,0.005626666,0.140158278,-0.253335345,-3.056014347,-0.09292672
401358,1.10551,-0.217572,-0.04823,-0.112976,0.414976,-3.09162,-0.090373334,0.008791899,0.124086932,-0.258152513,-3.110207728,-0.05520916
401368,1.063221,-0.243241,-0.059224,-0.080382,0.414365,-3.136491,-0.143896981,0.006261116,0.082758984,-0.263829961,-3.153701052,-0.017286849
401378,1.001131,-0.263776,-0.068753,-0.058014,0.410699,-3.167416,-0.192141423,0.003880504,0.019624758,-0.27113146,-3.182910841,0.011389399
401388,0.938309,-0.27771,-0.080236,-0.042037,0.407032,-3.173479,-0.231765263,-0.002817275,-0.045923816,-0.273821777,-3.1878619,0.031132997
401398,0.906775,-0.297023,-0.07706,-0.024143,0.397867,-3.165597,-0.269523856,0.006057947,-0.081456588,-0.27913933,-3.177931462,0.052136913
401408,0.907998,-0.300446,-0.078037,-0.013917,0.394201,-3.137704,-0.273023306,0.005852447,-0.080085893,-0.276429747,-3.149691401,0.061686111
401470,0.718552,-0.4173,-0.103936,0.052548,0.440638,-3.072823,-0.015744864,0.001945449,-0.162738229,-0.240674129,-3.088254404,0.209582989
401480,0.692886,-0.4129,-0.102959,0.071081,0.455914,-3.066153,-0.039675308,0.001631117,-0.187841651,-0.214637746,-3.0858792,0.213270968
401490,0.695819,-0.439302,-0.103203,0.073637,0.465079,-3.04493,-0.076022198,0.00849919,-0.174197617,-0.198160929,-3.067666629,0.208502487
401500,0.660374,-0.476461,-0.112976,0.09281,0.467523,-3.041898,-0.14152546,0.008664785,-0.190204997,-0.18343656,-3.065245991,0.225727568
401510,0.622485,-0.500908,-0.123727,0.103035,0.463857,-3.054025,-0.196567583,0.004704957,-0.215752705,-0.180796642,-3.076090902,0.240469466
401520,0.583374,-0.524865,-0.135943,0.130516,0.456525,-3.060089,-0.251138633,-0.001143016,-0.244210961,-0.172305087,-3.079904044,0.272206224
401530,0.519085,-0.526332,-0.141562,0.16311,0.44736,-3.075855,-0.29316778,-0.006368932,-0.306799812,-0.165853011,-3.092367415,0.312051877
401540,0.448196,-0.517287,-0.15329,0.180365,0.440027,-3.068578,-0.315688821,-0.021178687,-0.374016493,-0.164052898,-3.083274115,0.329899401
401601,0.346017,-0.638542,-0.156222,0.03657,0.416809,-2.665951,-0.010650604,0.000330308,-0.257197591,-0.071642178,-2.688682058,0.219586051
401610.875,0.28955,-0.673012,-0.163063,0.032736,0.419864,-2.657462,-0.087591774,0.003058286,-0.254552333,-0.070163412,-2.680884324,0.21771092
401620.75,0.237972,-0.677656,-0.179922,0.032097,0.416809,-2.624718,-0.146576728,-0.011793583,-0.274330359,-0.065847897,-2.648212763,0.215726117
401630.625,0.189817,-0.681568,-0.181143,0.051269,0.418642,-2.588943,-0.199553982,-0.011965737,-0.297566197,-0.041546125,-2.613588884,0.218957894
401640.5,0.162439,-0.65981,-0.177478,0.058938,0.408865,-2.544678,-0.220311494,-0.013256249,-0.333275752,-0.031707906,-2.567905647,0.225578363
401650.375,0.147283,-0.630963,-0.182121,0.080028,0.394812,-2.508296,-0.226711248,-0.024724346,-0.36678174,-0.01348065,-2.528748616,0.24306075
401660.25,0.162683,-0.624852,-0.170637,0.089615,0.374037,-2.457361,-0.21670684,-0.015150504,-0.368469024,-0.007167242,-2.474146472,0.25515775
401670.125,0.182728,-0.647343,-0.164773,0.094088,0.364261,-2.420979,-0.211240715,-0.003782374,-0.340488304,-0.004463222,-2.436411607,0.257985483
401751,-0.118429,-0.853427,-0.299886,0.127321,0.398478,-2.258473,-0.031437729,-0.001028477,-0.088240549,0.169601344,-2.262689386,0.356605908
401760.875,-0.103274,-0.838026,-0.294755,0.090893,0.432695,-2.247558,-0.027782683,-6.98E-06,-0.106097473,0.132567598,-2.262995191,0.329062397
401770.75,-0.100585,-0.806734,-0.286448,0.062773,0.493186,-2.279089,-0.037409716,-0.002991167,-0.138848961,0.103364787,-2.312875477,0.285205717
401780.625,-0.109385,-0.770798,-0.271544,0.021871,0.546955,-2.305769,-0.058876406,-0.002686743,-0.177590656,0.061539347,-2.356612149,0.242488931
401790.5,-0.122829,-0.742684,-0.249555,-0.021586,0.607446,-2.319716,-0.0838705,0.007998204,-0.211427902,0.016035954,-2.390330053,0.191321731
401800.375,-0.159252,-0.72386,-0.240759,-0.074631,0.674047,-2.304557,-0.130488931,0.009696642,-0.23176956,-0.03989634,-2.398625049,0.126088327
401810.25,-0.222807,-0.722149,-0.237094,-0.125118,0.722929,-2.288185,-0.203147963,0.012472922,-0.234538679,-0.092298706,-2.399897424,0.077747997
401820.125,-0.28563,-0.715304,-0.240759,-0.154516,0.753479,-2.253622,-0.266007424,0.005941836,-0.238150966,-0.123020588,-2.377776208,0.038264284
401883,-0.493164,-0.689635,-0.150114,0.005255,0.696044,-1.899504,-0.008327717,-0.003129514,-0.139034128,-0.156446716,-2.002855632,-0.238147124
401892.875,-0.525187,-0.673256,-0.128857,0.075555,0.65755,-1.862516,-0.053166348,0.011683922,-0.138178685,-0.084815998,-1.957622517,-0.259936029
401902.75,-0.56992,-0.651499,-0.109311,0.154802,0.614778,-1.791571,-0.109947044,0.02463651,-0.134833347,-0.007301694,-1.878775693,-0.285991043
401912.625,-0.620765,-0.62583,-0.102226,0.198899,0.576284,-1.704254,-0.171146844,0.025214512,-0.129634838,0.036602296,-1.785078666,-0.297153472
401922.5,-0.656454,-0.61654,-0.106135,0.250665,0.538401,-1.57146,-0.208489575,0.018307021,-0.117665022,0.081959465,-1.647115824,-0.320136249
401932.375,-0.689943,-0.60505,-0.102226,0.290288,0.494408,-1.428358,-0.245023262,0.01841887,-0.109954301,0.119851547,-1.497868113,-0.333076104
401942.25,-0.724165,-0.615807,-0.096606,0.32352,0.457747,-1.306478,-0.269810445,0.024298816,-0.083715209,0.151148138,-1.370914504,-0.344717179
401952.125,-0.756921,-0.640253,-0.100271,0.360587,0.426585,-1.240991,-0.283903691,0.025458124,-0.045192084,0.192711524,-1.301040749,-0.349587823
402014,-0.944166,-0.587938,-0.150114,0.574682,0.133908,-0.524266,-0.001496666,0.006565967,0.12232321,0.30866795,-0.54542057,-0.47988133
402023.875,-0.937566,-0.578159,-0.158177,0.577877,0.108245,-0.359334,-0.007531246,0.002816857,0.112768234,0.29737244,-0.383613633,-0.489070489
402033.75,-0.919966,-0.572047,-0.163063,0.573403,0.083193,-0.168329,-0.002383833,0.002852616,0.095514004,0.276753623,-0.196625362,-0.498791166
402043.625,-0.906277,-0.563735,-0.172103,0.579155,0.043477,0.011155,-0.001318177,-0.002385658,0.081086104,0.278194954,-0.017227549,-0.5096528
402053.5,-0.898699,-0.565691,-0.192382,0.581072,-0.004793,0.186395,0.006736741,-0.016496327,0.079054921,0.287210699,0.16035405,-0.514011022
402063.375,-0.884033,-0.567891,-0.203621,0.570847,-0.038399,0.367699,0.018486941,-0.02223394,0.069878465,0.277669151,0.340703321,-0.5190033
402073.25,-0.875233,-0.570091,-0.219258,0.558704,-0.073838,0.529598,0.028416194,-0.032562349,0.066415883,0.273459256,0.503008471,-0.519883415
402083.125,-0.848588,-0.571803,-0.233674,0.54081,-0.108055,0.726667,0.046842963,-0.047482326,0.047480295,0.25764714,0.703198766,-0.52088935
402145,-0.576765,-0.633653,-0.283028,0.292844,-0.252867,1.779319,0.005751727,0.00025175,-0.097644365,-0.084773883,1.728082488,-0.567644023
402155,-0.537898,-0.650032,-0.285715,0.244274,-0.261421,1.909688,0.052320812,0.005221096,-0.110762015,-0.144551444,1.850982739,-0.572613976
402165,-0.505142,-0.656877,-0.287914,0.173974,-0.277918,2.000643,0.088970082,0.006942772,-0.127310807,-0.205644729,1.941554012,-0.546036669
402175,-0.465053,-0.665433,-0.289625,0.110065,-0.293805,2.089778,0.132226424,0.00926724,-0.148302693,-0.261579837,2.030761662,-0.522676606
402185,-0.422031,-0.682301,-0.288159,0.047435,-0.318856,2.137681,0.181777984,0.017421634,-0.167333392,-0.300180586,2.086252753,-0.48066657
402195,-0.401008,-0.701614,-0.293289,0.009729,-0.341464,2.1395,0.21791281,0.020643469,-0.168630098,-0.310104712,2.09822004,-0.442108921
402205,-0.374364,-0.720927,-0.294755,-0.024782,-0.361017,2.113426,0.257053371,0.026788668,-0.17539671,-0.313232115,2.083390325,-0.398606668
402215,-0.355541,-0.72655,-0.292068,-0.065683,-0.398289,2.066736,0.273727823,0.030873772,-0.185317294,-0.307901987,2.056602631,-0.331554009
402277,-0.209119,-0.779843,-0.273255,-0.215869,-0.655527,1.756883,0.005368461,0.002878642,-0.147640305,-0.202242277,1.874812813,0.084427036
402287,-0.192741,-0.782532,-0.276431,-0.217147,-0.697076,1.69564,0.027168625,0.002602702,-0.148428151,-0.191263028,1.830885045,0.13978979
402297,-0.18223,-0.767864,-0.27301,-0.212673,-0.748402,1.662897,0.038509716,0.002715857,-0.165813581,-0.174947521,1.817304008,0.19329071
402307,-0.170252,-0.759308,-0.272522,-0.217786,-0.799727,1.656227,0.053282164,0.002099832,-0.177224682,-0.170115126,1.828420936,0.240872613
402317,-0.150207,-0.750263,-0.271056,-0.234402,-0.846165,1.695034,0.076277638,0.000967214,-0.191848496,-0.181677522,1.88020559,0.275499516
402327,-0.094229,-0.759797,-0.257862,-0.24974,-0.888936,1.768404,0.137902221,0.017419613,-0.204171544,-0.196380903,1.963021809,0.296327362
402337,-0.050718,-0.784977,-0.249311,-0.270191,-0.913988,1.830254,0.192538902,0.034912133,-0.198359747,-0.219875815,2.028646762,0.30733351
402347,-0.034584,-0.799156,-0.243935,-0.276582,-0.946983,1.865423,0.211185427,0.045072798,-0.192089233,-0.221068635,2.072913581,0.327468043
402410,0.096194,-0.793533,-0.255419,-0.259966,-1.086906,1.865423,0.007973315,0.001412309,-0.160880697,-0.316184888,2.108112119,0.429697978
402419.875,0.154616,-0.794022,-0.247112,-0.281695,-1.10157,1.907868,0.074669591,0.010901256,-0.157535164,-0.342940753,2.151911148,0.429463498
402429.75,0.18835,-0.808201,-0.239293,-0.300867,-1.108291,1.915751,0.115354842,0.024661077,-0.144423697,-0.367568113,2.160337168,0.432167547
402439.625,0.214995,-0.80869,-0.236117,-0.305341,-1.105847,1.895135,0.149663237,0.030878531,-0.144078838,-0.377629882,2.139286865,0.43418287
402449.5,0.254839,-0.808201,-0.242469,-0.32004,-1.111957,1.862391,0.19703367,0.0284125,-0.141342064,-0.398249165,2.109188542,0.447320361
402459.375,0.279528,-0.804779,-0.238805,-0.336017,-1.102792,1.838743,0.229269066,0.035253621,-0.146169896,-0.418572679,2.083235965,0.441540787
402469.25,0.267061,-0.796956,-0.249311,-0.373723,-1.093016,1.83753,0.224995938,0.026538983,-0.153070883,-0.460145568,2.077713405,0.426898609
402479.125,0.262661,-0.792311,-0.248333,-0.415903,-1.086295,1.867848,0.220852462,0.025845808,-0.157994665,-0.502291385,2.10297216,0.408753892
402541,0.442329,-0.816513,-0.188962,-0.536051,-1.034969,1.585282,0.005372238,0.0111407,-0.052423045,-0.781988721,1.778948484,0.308976469
402551,0.438907,-0.794511,-0.186519,-0.528382,-1.021527,1.50888,0.018439128,0.011974344,-0.073612913,-0.78015678,1.700360619,0.315520157
402561,0.45284,-0.775198,-0.177478,-0.527104,-1.016028,1.501603,0.047068687,0.01967594,-0.08627584,-0.77979932,1.69085727,0.312854291
402571,0.471907,-0.774709,-0.168683,-0.538608,-1.006251,1.561027,0.07216341,0.032507153,-0.080728586,-0.782433682,1.74532068,0.284777462
402581,0.532529,-0.77691,-0.157444,-0.557141,-0.991587,1.640461,0.133807442,0.049637394,-0.055756072,-0.787776868,1.817839641,0.244192155
402591,0.581663,-0.789133,-0.150847,-0.568645,-0.967146,1.647737,0.180313217,0.064585863,-0.026792229,-0.789094208,1.817988827,0.214505709
402601,0.609041,-0.810157,-0.147671,-0.573757,-0.929874,1.580431,0.202728227,0.077258666,0.001011685,-0.785480077,1.742598182,0.194929532
402611,0.554529,-0.794511,-0.146205,-0.560976,-0.884659,1.454913,0.159983751,0.073066618,-0.036053678,-0.764726844,1.610259924,0.190639157
402673,0.718797,-0.717015,-0.058736,-0.52327,-0.700743,1.627121,0.026571824,0.013359359,0.016535794,-0.769228746,1.679244479,0.028286203
402683,0.721241,-0.741707,-0.071196,-0.523909,-0.669581,1.671386,0.040525127,0.012913074,0.036135942,-0.745670266,1.720543545,0.007502048
402693,0.62493,-0.723616,-0.080236,-0.513683,-0.65125,1.644099,0.008010857,0.008548908,-0.040594883,-0.727357875,1.691717138,0.010097404
402703,0.588507,-0.706748,-0.08268,-0.478533,-0.631698,1.634397,-0.004547991,0.007431756,-0.076640215,-0.688564423,1.680754702,0.015245184
402713,0.595596,-0.663966,-0.076816,-0.461917,-0.607257,1.608324,0.032776857,0.013182127,-0.105439744,-0.661390252,1.652686566,0.004951525
402723,0.643752,-0.636097,-0.073395,-0.448496,-0.578539,1.62227,0.093724027,0.017418694,-0.097040835,-0.631519025,1.663937279,-0.010603902
402733,0.722464,-0.608717,-0.038456,-0.447218,-0.551043,1.706555,0.181374788,0.053073093,-0.073578976,-0.607794202,1.74501744,-0.038505032
402743,0.777219,-0.615318,-0.017933,-0.44594,-0.505217,1.829041,0.220964564,0.075804024,-0.036446359,-0.572100768,1.861381404,-0.086357748
402805,0.88282,-0.545156,0.003323,-0.317484,-0.280362,1.875731,0.008341503,0.000577656,0.037548719,-0.413509784,1.874474863,-0.114539829
402815,0.900664,-0.542222,0.006744,-0.316205,-0.246756,1.941825,0.028944357,0.004658009,0.050897877,-0.382788011,1.941215415,-0.129284595
402825,0.926331,-0.49993,0.019449,-0.311093,-0.203374,1.975781,0.086627126,0.02326745,0.048976528,-0.34162605,1.974985913,-0.156756763
402835,0.923887,-0.549067,-0.005961,-0.296394,-0.159992,1.960016,0.051289702,-0.00019917,0.073520666,-0.295102804,1.95939671,-0.169671538
402845,0.918509,-0.532199,-0.000586,-0.272108,-0.125164,1.890284,0.06918437,0.00523147,0.059283275,-0.250763516,1.889997297,-0.167063664
402855,0.967642,-0.511664,0.010409,-0.238876,-0.089114,1.831466,0.120440094,0.015671307,0.08788236,-0.200307023,1.831508135,-0.157244414
402865,1.000643,-0.526332,0.015051,-0.231207,-0.055508,1.80418,0.133493305,0.020859854,0.122623144,-0.165689217,1.804259955,-0.169694982
402875,1.00382,-0.528043,0.002835,-0.238876,-0.012126,1.80418,0.133809029,0.008663076,0.12628244,-0.134292261,1.803884946,-0.200596471
402936,1.040243,-0.385275,0.02458,-0.107863,0.071584,1.596196,0.015631291,0.010018868,0.109415065,-0.065912865,1.596688539,-0.104122858
402946,1.037309,-0.381853,0.014318,-0.09636,0.078916,1.649557,0.026534213,0.006160175,0.105117491,-0.057306561,1.649974813,-0.104165032
402956,1.030954,-0.382831,0.006255,-0.090608,0.083804,1.711406,0.032367335,0.004173724,0.099272389,-0.053364014,1.711530895,-0.109351251
402966,1.018976,-0.38992,0.001857,-0.087412,0.08747,1.748394,0.029896557,0.005028918,0.090611778,-0.0498789,1.748163622,-0.116659687
402976,0.972042,-0.375741,-0.005961,-0.084217,0.090525,1.756277,0.03103449,-0.001697308,0.041689235,-0.045292006,1.756142783,-0.117078345
402986,0.97082,-0.359362,-0.006938,-0.059932,0.088081,1.752639,0.050700101,-0.000604906,0.033977654,-0.037345666,1.75286155,-0.095787575
402996,0.975465,-0.333937,-0.012313,-0.025421,0.083193,1.703523,0.080662481,-0.005391368,0.027940657,-0.025315664,1.704476816,-0.060628508
403006,1.027043,-0.298734,-0.001319,0.000782,0.078305,1.659258,0.13276099,0.008505919,0.061302612,-0.017046233,1.660658584,-0.034523737
403067,1.033398,-0.254242,-0.00645,0.024428,0.042866,1.75082,0.004885839,-0.002044843,0.064219888,0.090009152,1.749191075,0.005816251
403076.875,1.048309,-0.23224,-0.003518,0.051269,0.026368,1.679875,0.033992928,0.001572024,0.07319223,0.077913463,1.678714189,0.033940577
403086.75,1.058087,-0.212193,-0.011092,0.074277,0.00926,1.59559,0.058870787,-0.006183721,0.077586652,0.063825343,1.594927693,0.060351041
403096.625,1.064198,-0.175279,-0.009382,0.097284,-0.009682,1.530102,0.099047428,-0.005504106,0.074005328,0.048438904,1.529928989,0.087983004
403106.5,1.080332,-0.127364,-0.004006,0.107509,-0.028012,1.496146,0.15286653,-0.001997369,0.077024931,0.031231325,1.496335218,0.103928961
403116.375,1.118465,-0.102428,0.007966,0.112622,-0.040232,1.519794,0.190788721,0.008817745,0.106815621,0.020001403,1.520173464,0.112910209
403126.25,1.151221,-0.093383,0.009187,0.104953,-0.049398,1.562846,0.212170704,0.008956508,0.135349263,0.009054537,1.563316057,0.109104697
403136.125,1.165154,-0.089961,0.016517,0.081946,-0.056119,1.573154,0.219265157,0.016196507,0.147871988,-0.0032746,1.573788849,0.088633698
403197,1.069576,-0.016621,-0.00083,0.087697,-0.083615,1.227526,0.005804763,-0.007141615,0.069665868,-0.021392692,1.229536145,0.096361472
403206.875,1.11211,-0.010265,0.006744,0.079389,-0.082393,1.250568,0.013950901,-0.00064605,0.112090131,-0.020204424,1.252490653,0.088715774
403216.75,1.132643,0.006359,0.009676,0.074277,-0.091558,1.26512,0.033757164,-0.00326353,0.132194343,-0.029568337,1.267126132,0.089138279
403226.625,1.154888,0.009048,0.023847,0.070442,-0.095224,1.256631,0.038755758,0.007585989,0.154494384,-0.034627297,1.258613399,0.088568723
403236.5,1.141443,0.004403,0.021404,0.06469,-0.095835,1.232377,0.033482879,0.00701068,0.141139513,-0.037496539,1.234568896,0.080968283
403246.375,1.119199,0.003181,0.013097,0.062134,-0.09278,1.208122,0.031603616,0.003620888,0.118828026,-0.036571777,1.21051201,0.073148528
403256.25,1.102332,0.000736,0.004789,0.065329,-0.105611,1.160219,0.027763929,-0.000677808,0.101992749,-0.052387886,1.16342159,0.072356081
403266.125,1.076176,0.013937,-0.000586,0.065968,-0.101334,1.115954,0.040073134,-0.006503178,0.07550045,-0.050065608,1.119008012,0.072719943
403326,1.149754,0.098278,0.011875,0.014202,-0.054286,1.152336,-0.020332977,-0.007158085,0.153806385,-0.082973283,-1.150642794,0.012787401
403336,1.136065,0.094611,0.00821,0.004616,-0.05062,1.13172,-0.016162907,-0.006621974,0.139893521,-0.084635552,-1.129694673,0.000787374
403346,1.117976,0.100478,-0.001319,0.014842,-0.045121,1.085636,-0.021147211,0.007749253,0.122256944,-0.08362533,-1.083343042,0.015374407
403356,1.092065,0.102434,0.009676,0.025067,-0.040843,1.038339,-0.023857027,-0.004330378,0.096633213,-0.081148558,-1.035983277,0.024452922
403366,1.064443,0.128103,0.000392,0.028901,-0.034122,0.997713,-0.047423734,0.008465738,0.071040967,-0.08231317,-0.994887526,0.029226052
403376,1.079843,0.13397,0.006988,0.031458,-0.031067,0.969214,-0.050253101,0.000657268,0.086982931,-0.081385198,-0.96632203,0.030474992
403386,1.097443,0.148394,-0.00254,0.031458,-0.029845,0.964363,-0.05919905,0.01216282,0.105782939,-0.081698861,-0.961367838,0.031200979
403396,1.117243,0.161839,0.007966,0.025706,-0.024346,0.966788,-0.072169779,0.003172064,0.126618259,-0.087885927,-0.963087313,0.025912429
403456,1.070554,0.206821,-0.00987,0.021232,0.002539,0.797612,-0.020913746,-0.004017986,0.090185618,0.038638141,-0.796873445,0.011914423
403466,1.071532,0.199976,-0.011581,0.007172,0.011093,0.77457,-0.010604533,0.002485538,0.090039776,0.026611452,-0.774220067,0.002880282
403476,1.095243,0.198265,-0.010359,-0.010722,0.02148,0.773358,0.000292526,0.001582402,0.113090723,0.012876709,-0.773517069,-0.012825037
403486,1.102821,0.210488,-0.009382,-0.037564,0.034923,0.776996,-0.005755873,-0.001914619,0.122751345,-0.005583092,-0.777729531,-0.038197651
403496,1.115287,0.221978,-0.013046,-0.063127,0.044088,0.783059,-0.01403666,-0.00543296,0.137138065,-0.019596685,-0.783794203,-0.06627809
403506,1.127265,0.221,-0.020376,-0.074631,0.043477,0.779421,-0.008681306,-0.00344525,0.148866975,-0.022202351,-0.779661309,-0.081193781
403516,1.133132,0.222222,-0.024286,-0.095081,0.04531,0.775783,-0.003554986,0.000353909,0.154966577,-0.029344976,-0.775838133,-0.100730929
403526,1.134843,0.224911,-0.024286,-0.111059,0.034923,0.760017,-0.005867113,0.000209804,0.157155536,-0.02286925,-0.759419934,-0.118058962
403586,1.168088,0.204865,-0.037235,-0.210756,-0.034122,0.542938,-0.007963283,0.009062746,0.186440113,0.092182084,-0.529998941,-0.225760183
403596,1.211599,0.211221,-0.015978,-0.170494,-0.029234,0.482302,-0.004279499,-0.023998594,0.229734726,0.082709109,-0.46936216,-0.188139352
403606,1.16051,0.200709,-0.044809,-0.224177,-0.068339,0.424697,0.002253717,0.008889112,0.178554756,0.098676087,-0.406461245,-0.245652955
403616,1.171999,0.197287,-0.037479,-0.226733,-0.084226,0.367092,-0.008981313,-0.000209331,0.189044904,0.106703669,-0.346739273,-0.248283331
403626,1.187399,0.185552,-0.035036,-0.23632,-0.103778,0.300392,-0.011898523,-0.00288658,0.202257686,0.115979374,-0.277484835,-0.257688417
403636,1.199132,0.186286,-0.036258,-0.243989,-0.115999,0.234904,0.00055078,0.002237425,0.214054925,0.112839179,-0.212042534,-0.265464824
403646,1.217466,0.198265,-0.032348,-0.253575,-0.12272,0.180331,0.004457109,0.001661264,0.233919057,0.105903752,-0.158569225,-0.274808924
403656,1.233844,0.203398,-0.03186,-0.266357,-0.12883,0.099078,0.002264124,0.000375578,0.250900298,0.096808703,-0.077409638,-0.286348552
403717,1.309622,0.154016,-0.030638,-0.34816,-0.105,-0.470299,-0.005640623,-0.007197603,0.318971484,-0.027073471,0.483740863,-0.344504485
403727,1.327711,0.145949,-0.034792,-0.36925,-0.093391,-0.556403,-0.003435706,-0.005162004,0.336147313,-0.053255028,0.567274095,-0.360576958
403737,1.336022,0.135681,-0.038701,-0.37628,-0.08056,-0.649177,0.003433633,0.007357407,0.343426948,-0.08062679,0.654449156,-0.367019009
403747,1.337977,0.131037,-0.032348,-0.375001,-0.065284,-0.7656,0.009253738,-0.00556116,0.344724129,-0.113957798,0.768454876,-0.357101994
403757,1.333333,0.136415,-0.034059,-0.380753,-0.05673,-0.857161,0.010977558,0.008300823,0.340655267,-0.138352032,0.853940719,-0.366824322
403767,1.332355,0.136659,-0.032348,-0.394174,-0.037788,-0.968126,0.010865383,0.002516945,0.339689341,-0.174369094,0.96157157,-0.372886796
403777,1.331133,0.126147,-0.033814,-0.39034,-0.024346,-1.083336,0.020808875,0.004143151,0.337356101,-0.203004057,1.073853605,-0.363596919
403787,1.3348,0.117591,-0.035525,-0.398648,-0.009682,-1.185811,0.029311344,0.007266784,0.340100275,-0.235595124,1.172373903,-0.367690178
403848,1.3348,0.106346,-0.02795,-0.319401,0.132075,-1.795816,0.00964829,0.0128382,0.339225076,-0.605920018,1.702223805,-0.282331293
403858,1.317688,0.097789,-0.023308,-0.318123,0.15957,-1.869792,0.025544171,0.015563517,0.321178598,-0.6478115,1.767565736,-0.28078209
403868,1.310599,0.090455,-0.0172,-0.311093,0.190732,-1.910419,0.041909488,0.019338422,0.313018395,-0.684373503,1.79937646,-0.277011856
403878,1.309866,0.088988,-0.008893,-0.302146,0.224949,-1.969236,0.054100039,0.019938193,0.311648788,-0.728050681,1.848292037,-0.271188927
403888,1.320622,0.086788,-0.001807,-0.29192,0.26161,-2.006831,0.068459897,0.0209054,0.32153475,-0.768796623,1.876570574,-0.261653159
403898,1.329177,0.089966,-0.001074,-0.275304,0.292772,-2.042607,0.076714259,0.02597124,0.329754469,-0.803114789,1.904974621,-0.244600536
403908,1.332355,0.080677,-0.001563,-0.259327,0.314158,-2.082627,0.096460771,0.034698008,0.330854025,-0.829136688,1.939987038,-0.228612358
403918,1.318666,0.066498,-0.004006,-0.240793,0.348986,-2.096573,0.107740642,0.039847242,0.315341098,-0.863539068,1.946129806,-0.205596444
403979,1.289333,-0.002442,-0.001074,-0.11681,0.523126,-2.221485,-0.01448977,0.000775088,0.289254105,-0.416371693,-2.243815049,-0.119288015
403989,1.275155,-0.06038,-0.007916,-0.088691,0.542067,-2.269387,-0.087399002,0.027277079,0.273320877,-0.419018851,-2.295613955,-0.079999078
403999,1.247532,-0.006598,-0.011581,-0.065683,0.559787,-2.309408,-0.054313245,0.007405931,0.246398398,-0.419588135,-2.339299245,-0.051632263
404009,1.208177,-0.010265,-0.015978,-0.041398,0.578117,-2.330631,-0.072333955,0.007272313,0.206137323,-0.412315093,-2.365818127,-0.025976371
404019,1.207443,-0.02371,-0.016223,-0.030534,0.590338,-2.326992,-0.098815716,0.014146752,0.203652471,-0.3999632,-2.367297918,-0.015907632
404029,1.214288,-0.029577,-0.013291,-0.015196,0.612945,-2.311833,-0.117684509,0.02166903,0.208812478,-0.373614905,-2.362396016,0.001131127
404039,1.215755,-0.041556,-0.021842,0.003977,0.628832,-2.315471,-0.146624161,0.021326941,0.207605362,-0.361380182,-2.371868572,0.022255175
404049,1.208421,-0.056224,-0.029905,0.016759,0.639219,-2.327599,-0.162641209,0.01971597,0.198956162,-0.357857851,-2.386894156,0.03567839
404126,1.094998,-0.185791,-0.066065,0.086419,0.678935,-2.662919,-0.018450711,0.003823251,0.112451551,-0.231293245,-2.736372244,0.135384483
404136,1.06102,-0.208038,-0.076327,0.100479,0.673436,-2.739928,-0.066738644,0.005340897,0.081844022,-0.257188177,-2.806948775,0.160344434
404146,1.015309,-0.219283,-0.086345,0.119652,0.664882,-2.833308,-0.105613227,0.003004326,0.036932823,-0.290395592,-2.891902546,0.191282416
404156,0.967153,-0.230528,-0.09343,0.137546,0.647162,-2.913955,-0.142335418,0.002593617,-0.011571373,-0.32825697,-2.961907959,0.219590303
404166,0.927064,-0.251552,-0.096851,0.147132,0.624555,-2.962464,-0.184709007,0.008553357,-0.05241591,-0.36120907,-3.000163386,0.237607643
404176,0.916798,-0.262065,-0.100516,0.155441,0.609279,-2.9849,-0.213639402,0.011133698,-0.065369405,-0.378865608,-3.016285325,0.251981153
404186,0.909953,-0.272332,-0.102226,0.162471,0.57995,-2.997027,-0.241093191,0.015556824,-0.075737378,-0.406328604,-3.018176358,0.265364286
404196,0.892598,-0.284555,-0.108823,0.17717,0.561009,-3.003697,-0.255708007,0.012803947,-0.092258486,-0.425583967,-3.017973029,0.28112819
404257,0.637641,-0.370118,-0.15329,0.188034,0.38137,-2.936997,-0.029422976,0.007775025,-0.247573897,-0.559267906,-2.856602319,0.57774894
404267,0.658419,-0.375008,-0.157932,0.18356,0.337376,-2.864839,-0.035885203,0.008375599,-0.226869223,-0.566111622,-2.774164985,0.581674824
404277,0.655974,-0.403121,-0.166728,0.172057,0.304381,-2.767214,-0.073381681,0.013458954,-0.215754732,-0.559871065,-2.672497218,0.569234341
404287,0.62933,-0.443214,-0.176257,0.160553,0.276886,-2.655643,-0.131712767,0.021630444,-0.221703591,-0.545370282,-2.559747149,0.55240262
404297,0.595107,-0.469372,-0.186519,0.143937,0.254889,-2.556199,-0.181068947,0.023258369,-0.241102881,-0.532938117,-2.460302016,0.531724125
404307,0.552085,-0.493818,-0.198979,0.135629,0.231059,-2.438564,-0.2322017,0.020952771,-0.269322192,-0.513284596,-2.34312608,0.514467655
404317,0.533752,-0.533177,-0.20582,0.113261,0.21334,-2.305769,-0.282131013,0.029462346,-0.271258039,-0.490691424,-2.214941939,0.477668113
404327,0.538396,-0.550045,-0.2024,0.098562,0.202953,-2.193592,-0.293284125,0.039052564,-0.261186875,-0.470825653,-2.107606471,0.446170838
404388,0.447951,-0.663966,-0.217548,-0.031173,0.27322,-2.156603,-0.007631248,0.001322031,-0.170073439,-0.244934267,-2.13470662,0.331047239
404398,0.397351,-0.702592,-0.225122,-0.045872,0.289106,-2.162061,-0.079469403,0.006591066,-0.165827103,-0.246520644,-2.145304004,0.311596842
404408,0.382195,-0.724105,-0.225367,-0.063127,0.308659,-2.199656,-0.112897727,0.012528378,-0.158401226,-0.253091521,-2.188056678,0.293418761
404418,0.375106,-0.724349,-0.214128,-0.049706,0.3276,-2.313652,-0.126982796,0.023760598,-0.166604782,-0.24664017,-2.302706255,0.315421229
404428,0.371684,-0.702836,-0.218037,-0.04012,0.333099,-2.422798,-0.129304351,0.012959333,-0.185886978,-0.249484375,-2.409046229,0.341714093
404438,0.350173,-0.728261,-0.208019,-0.021586,0.341654,-2.514966,-0.170744328,0.029091319,-0.183754211,-0.240385728,-2.500149479,0.365670175
404448,0.302506,-0.75613,-0.198735,-0.003053,0.350819,-2.571964,-0.235275407,0.044456197,-0.196627616,-0.225067911,-2.557854655,0.38053398
404458,0.252639,-0.768353,-0.188962,0.000782,0.353874,-2.631995,-0.28038375,0.05636411,-0.220187539,-0.230223381,-2.61592777,0.395656666
404536,-0.011362,-0.75833,-0.217059,0.115817,0.268942,-2.448872,-0.009697181,0.001714616,-0.211196401,0.126028104,-2.426939855,0.420472719
404546,-0.042162,-0.760041,-0.227566,0.130516,0.278108,-2.382778,-0.049009511,-0.007361723,-0.207049741,0.144763157,-2.364994216,0.397310294
404556,-0.075896,-0.765175,-0.237339,0.145215,0.280552,-2.286366,-0.090649644,-0.014926003,-0.200536029,0.163008232,-2.271986712,0.372519806
404566,-0.094718,-0.770553,-0.247356,0.147772,0.284829,-2.19056,-0.11702707,-0.022804295,-0.193964613,0.168902054,-2.180292068,0.345421235
404576,-0.111096,-0.771776,-0.253953,0.161192,0.29155,-2.135381,-0.140470882,-0.02937092,-0.192610427,0.186081552,-2.128405076,0.325732664
404586,-0.127718,-0.768842,-0.249799,0.179087,0.289717,-2.10385,-0.163747384,-0.027414551,-0.198585821,0.207250758,-2.09687964,0.319899694
404596,-0.151918,-0.765664,-0.246379,0.195064,0.301937,-2.073531,-0.19437885,-0.026732594,-0.20531435,0.227014924,-2.070479584,0.30054158
404606,-0.188585,-0.759553,-0.248089,0.216793,0.312325,-2.054734,-0.230615896,-0.030922239,-0.212666946,0.249176386,-2.05482544,0.286498625
404668,-0.247252,-0.695258,-0.239293,0.20465,0.336765,-1.84857,-0.006418561,-0.005317816,-0.224301024,0.286852671,-1.858235497,0.192820424
404678,-0.281719,-0.696969,-0.229031,0.255777,0.313547,-1.917089,-0.045948413,0.000468696,-0.215477786,0.352518166,-1.915763525,0.2110566
404688,-0.343808,-0.722149,-0.232696,0.310739,0.278719,-1.988034,-0.104187182,0.001104394,-0.173565272,0.425653818,-1.971338582,0.24323901
404698,-0.421297,-0.724838,-0.255663,0.366978,0.245724,-2.044426,-0.181832923,-0.024274361,-0.142916339,0.498011724,-2.013371844,0.270275686
404708,-0.487298,-0.697458,-0.267391,0.413632,0.212118,-2.038362,-0.257504599,-0.048171541,-0.147488514,0.5548541,-1.995588679,0.284196888
404718,-0.52152,-0.662744,-0.286448,0.446864,0.176068,-1.995917,-0.302871355,-0.081098429,-0.166359092,0.595422098,-1.942581591,0.293634693
404728,-0.551342,-0.647832,-0.289625,0.466676,0.147961,-1.921333,-0.339684538,-0.093308362,-0.173286684,0.617326988,-1.861807785,0.289445342
404738,-0.573342,-0.645631,-0.277408,0.473706,0.128408,-1.842506,-0.362716042,-0.082939693,-0.17291251,0.620545945,-1.780611161,0.282950477
404800,-0.808499,-0.590627,-0.341422,0.591298,0.088081,-1.197332,-0.002929302,0.002015908,0.057859737,0.779401219,-1.082281382,-0.110436655
404810,-0.818032,-0.560557,-0.357547,0.60408,0.072806,-1.003901,-0.021099175,-0.024978992,0.053646637,0.72173442,-0.909282905,-0.174168318
404820,-0.832455,-0.523643,-0.365122,0.602162,0.053864,-0.751047,-0.047757781,-0.046922547,0.046907284,0.634166584,-0.683464739,-0.245521273
404830,-0.831721,-0.504575,-0.365122,0.591937,0.044088,-0.492129,-0.054578162,-0.051854984,0.036340732,0.533051889,-0.457473081,-0.317959401
404840,-0.835632,-0.497485,-0.376605,0.572764,0.027591,-0.250795,-0.05042612,-0.059617301,0.039955035,0.437571409,-0.243630809,-0.375357544
404850,-0.849077,-0.503352,-0.381736,0.540171,0.036145,-0.054332,-0.045437737,-0.05313463,0.055996915,0.334084009,-0.081541769,-0.421641971
404860,-0.853721,-0.512398,-0.395418,0.501826,0.036756,0.190033,-0.029989762,-0.050737504,0.069706956,0.215924566,0.125558532,-0.476344955
404870,-0.849077,-0.52291,-0.406657,0.453255,0.041644,0.443494,-0.015681178,-0.055381093,0.075371364,0.088433992,0.344246285,-0.526816069
404932,-0.629076,-0.560068,-0.421561,0.184839,-0.02679,1.69564,0.00307058,0.004014992,-0.058139657,-0.519979757,1.371759517,-0.870617625
404942,-0.592654,-0.568625,-0.421805,0.131794,-0.054897,1.841168,0.039282869,0.011894023,-0.077607458,-0.592232215,1.507565799,-0.887011448
404952,-0.54792,-0.584759,-0.421317,0.094727,-0.089725,2.006706,0.086748018,0.024448398,-0.099142361,-0.655535586,1.663712953,-0.919904918
404962,-0.496342,-0.615073,-0.429624,0.046157,-0.138606,2.154053,0.151773388,0.037443262,-0.114105086,-0.711216273,1.814450613,-0.929099997
404972,-0.422275,-0.649298,-0.435488,0.001421,-0.202763,2.284422,0.235259447,0.05254747,-0.144754057,-0.747956354,1.960906882,-0.924718455
404982,-0.349919,-0.678145,-0.430357,-0.063127,-0.259588,2.359005,0.310710989,0.071868459,-0.184019178,-0.781546189,2.059600988,-0.8851581
404992,-0.302497,-0.690124,-0.422783,-0.114254,-0.339631,2.40812,0.357548898,0.083310628,-0.217862442,-0.782081754,2.151230106,-0.829459035
405002,-0.273652,-0.696725,-0.408123,-0.165381,-0.424563,2.40812,0.376409647,0.097086854,-0.241207903,-0.767458313,2.204427627,-0.747096462
405064,-0.119163,-0.788644,-0.353883,-0.373723,-0.901767,1.963048,0.007928233,0.001181891,-0.127458824,-0.370140124,2.159734836,0.070368894
405074,-0.086651,-0.7994,-0.351195,-0.395452,-0.943927,1.876337,0.048454372,0.010272746,-0.123967279,-0.384355511,2.097448153,0.144924422
405084,-0.019429,-0.810401,-0.349729,-0.418459,-0.982422,1.773255,0.122860274,0.018812344,-0.125935306,-0.399034218,2.018812846,0.223294874
405094,0.034838,-0.818469,-0.344842,-0.443384,-1.006862,1.684119,0.183379317,0.029519751,-0.130792427,-0.41824782,1.947014547,0.284289253
405104,0.060505,-0.808446,-0.333115,-0.464474,-1.030692,1.6156,0.212151799,0.039075397,-0.150484773,-0.434537597,1.893865342,0.335673352
405114,0.068572,-0.795489,-0.322609,-0.509849,-1.033136,1.590133,0.22276712,0.046107311,-0.169439731,-0.481542365,1.870255925,0.355103761
405124,0.082749,-0.790355,-0.310148,-0.541803,-1.04169,1.541017,0.240181401,0.058600441,-0.183557052,-0.511902051,1.827898108,0.387487725
405134,0.120883,-0.816024,-0.306239,-0.591652,-1.039857,1.518581,0.281426315,0.073803008,-0.169552808,-0.558964738,1.805905386,0.404607317
405196,0.213772,-0.928478,-0.28596,-0.789769,-1.060632,1.351224,0.010041764,0.002120412,-0.005295193,-0.906165386,1.600587008,0.437569575
405206,0.250195,-0.961726,-0.259817,-0.823001,-1.074685,1.386394,0.049546054,0.040684288,0.025138668,-0.942812745,1.635489103,0.436630669
405216,0.282217,-0.97786,-0.240271,-0.864542,-1.086906,1.381543,0.087719375,0.068089964,0.039834523,-0.990120582,1.630672408,0.4450026
405226,0.286128,-0.985683,-0.221457,-0.872211,-1.105236,1.289375,0.098099373,0.092438942,0.041304454,-1.009725092,1.544277624,0.490355375
405236,0.295417,-0.960503,-0.205332,-0.851121,-1.126011,1.183867,0.117980222,0.104255307,0.013513663,-1.001616712,1.446159415,0.547024416
405246,0.305684,-0.955125,-0.195314,-0.805107,-1.13762,1.080179,0.133380333,0.115900719,0.006295554,-0.96699579,1.347538665,0.598516421
405256,0.294928,-0.951703,-0.2024,-0.747589,-1.128455,0.939502,0.126231601,0.110642413,0.002751577,-0.917484444,1.207810804,0.64372305
405266,0.27855,-0.924567,-0.197025,-0.700936,-1.1254,0.80792,0.114775757,0.106781729,-0.027036856,-0.872562388,1.083641292,0.689149906
405372,0.304706,-0.838271,-0.180655,-0.252297,-0.781397,1.024393,0.002015276,0.000377529,-0.08995822,-0.424712741,1.164588691,0.432398351
405382,0.359462,-0.845849,-0.165751,-0.241432,-0.75329,1.175378,0.055909979,0.01668718,-0.067936447,-0.397783257,1.305032915,0.381976764
405392,0.420573,-0.862717,-0.147426,-0.228651,-0.706853,1.335459,0.113420295,0.038913582,-0.036403474,-0.363187576,1.451058483,0.312885357
405402,0.478751,-0.872496,-0.143273,-0.199253,-0.66347,1.42035,0.169964616,0.045401795,-0.010035532,-0.31877112,1.524481635,0.26763602
405412,0.50564,-0.899142,-0.139119,-0.170494,-0.614589,1.431871,0.191403145,0.054876034,0.021682778,-0.277640694,1.525225458,0.231614664
405422,0.472396,-0.887653,-0.143028,-0.157073,-0.57915,1.405797,0.167015153,0.047999079,0.000672207,-0.257095994,1.492030428,0.209996924
405432,0.426195,-0.870295,-0.157688,-0.127036,-0.542489,1.430658,0.130776784,0.030627686,-0.027436147,-0.21761236,1.509179317,0.179547833
405442,0.406151,-0.849516,-0.174791,-0.111698,-0.503384,1.448243,0.11726072,0.009314781,-0.049552147,-0.190193249,1.518632003,0.144440475
405504,0.673819,-0.758819,-0.133744,-0.095081,-0.232703,1.649557,0.017863516,0.00902929,0.023389048,-0.033496266,1.663962635,-0.119731903
405514,0.674552,-0.759308,-0.152557,-0.106585,-0.189321,1.653801,0.031145264,-0.00034401,0.02658294,-0.013201333,1.658772517,-0.174814226
405524,0.656952,-0.750996,-0.172348,-0.132148,-0.139217,1.64895,0.031973119,-0.013052776,0.011974357,-0.000268742,1.642334403,-0.242111967
405534,0.646685,-0.743418,-0.177967,-0.171133,-0.094002,1.64895,0.034415368,-0.014009553,0.000581521,0.000873071,1.631038136,-0.311243986
405544,0.659641,-0.742929,-0.182609,-0.210117,-0.049398,1.62894,0.047715889,-0.018931166,0.008851129,-1.70E-06,1.601944832,-0.365797203
405554,0.689708,-0.747818,-0.163063,-0.226094,-0.028012,1.581037,0.074173798,-7.32E-05,0.027626718,-0.000597396,1.550996815,-0.382085967
405564,0.732241,-0.757841,-0.156222,-0.227372,-0.013348,1.541623,0.106000326,0.00620071,0.060014462,0.007051465,1.510222178,-0.384261526
405574,0.755219,-0.779599,-0.148648,-0.231846,9.50E-05,1.490082,0.112114994,0.018175717,0.089645097,0.005040407,1.457005027,-0.388854584
405636,0.697775,-0.661277,-0.148404,-0.13087,-0.034122,1.233589,0.002197652,-0.004711133,-0.027285271,0.081024781,1.212170871,-0.253199238
405646,0.736886,-0.651254,-0.130812,-0.118089,-0.054286,1.249961,0.041011442,0.006087609,-0.008775741,0.080438397,1.233226981,-0.227981056
405656,0.749841,-0.660544,-0.131056,-0.080382,-0.08056,1.26512,0.044166852,0.005675798,0.006862777,0.092735653,1.253577851,-0.182818118
405666,0.721241,-0.656877,-0.136432,-0.045233,-0.093391,1.257238,0.028270982,0.004805038,-0.015384681,0.10804521,1.247379605,-0.154225957
405676,0.689463,-0.623629,-0.145716,-0.003053,-0.109277,1.231164,0.030119021,-0.00650691,-0.059491619,0.123156323,1.224374126,-0.116000427
405686,0.676019,-0.596005,-0.15329,0.021232,-0.113555,1.229345,0.038937981,-0.018648211,-0.08684199,0.137880831,1.223163989,-0.097434061
405696,0.696308,-0.550045,-0.144739,0.047435,-0.117221,1.243291,0.087252504,-0.020756392,-0.105405185,0.156998513,1.237299814,-0.078765417
405706,0.743486,-0.544423,-0.141074,0.056382,-0.121498,1.316661,0.124981764,-0.018736419,-0.07636684,0.172418173,1.309682932,-0.080867019
405768,0.826353,-0.532199,-0.149625,-0.013278,-0.099501,1.533134,0.007237998,0.00542901,-0.005816499,0.25965452,1.501237827,-0.198597917
405777.875,0.810953,-0.506286,-0.154756,-0.045872,-0.092169,1.501603,0.020392929,-0.006473309,-0.031773825,0.243091842,1.468145049,-0.22553804
405787.75,0.831242,-0.482328,-0.152068,-0.069518,-0.079949,1.484019,0.054354107,-0.013611537,-0.028615114,0.238743188,1.447903676,-0.245180796
405797.625,0.89822,-0.460815,-0.128124,-0.094442,-0.06284,1.505241,0.118188492,-0.000111937,0.010740748,0.246711843,1.463643298,-0.274772974
405807.5,0.996242,-0.450059,-0.118351,-0.126397,-0.048176,1.531315,0.188887398,0.00140525,0.083225628,0.249907794,1.485012105,-0.309043524
405817.375,0.966665,-0.453237,-0.11151,-0.144291,-0.043899,1.573154,0.175229839,0.004896305,0.059042025,0.256793411,1.524457212,-0.328097355
405827.25,0.973509,-0.475239,-0.111266,-0.162186,-0.046343,1.574367,0.165493625,0.008375997,0.076333455,0.248996903,1.526455146,-0.339143999
405837.125,0.936598,-0.456904,-0.120306,-0.174967,-0.050009,1.544049,0.156274464,-0.004749503,0.037307258,0.231453449,1.498651493,-0.343037417
405899,0.990376,-0.380875,-0.105402,-0.202448,-0.060396,1.348193,0.012919576,-0.011489722,0.066171206,0.205308075,1.318004054,-0.28804712
405909,0.987687,-0.382342,-0.088788,-0.205004,-0.057341,1.336672,0.0251654,0.012479773,0.062452484,0.204908374,1.303429924,-0.301810633
405919,0.996976,-0.388698,-0.114442,-0.203087,-0.076894,1.315449,0.017270187,-0.010533134,0.075980969,0.186539538,1.287734928,-0.290697171
405929,0.99282,-0.376475,-0.10418,-0.206922,-0.090336,1.283918,0.029707111,-0.005970492,0.066470952,0.168336461,1.261169022,-0.283792654
405939,0.99282,-0.36254,-0.094652,-0.197974,-0.11111,1.252993,0.044996293,0.0025452,0.060214441,0.148306855,1.23589366,-0.268519146
405949,0.976198,-0.352761,-0.10809,-0.179441,-0.136773,1.206909,0.043384948,-0.012513659,0.042615682,0.123611876,1.198245677,-0.237618731
405959,0.976687,-0.307046,-0.093674,-0.161546,-0.150216,1.183261,0.087551887,-0.011651476,0.024289251,0.113236162,1.179139213,-0.213487327
405969,0.991842,-0.279177,-0.090498,0.012285,-0.157548,1.189931,0.118905632,-0.016546099,0.027359682,0.176653367,1.186191686,-0.051487376
406031,1.033154,-0.254731,-0.075838,-0.069518,-0.214983,1.177804,0.011975434,0.008292727,0.066693157,0.108430446,1.189274083,-0.110193912
406040.875,0.997709,-0.242996,-0.08268,-0.057375,-0.215595,1.142634,0.017813899,0.005913153,0.030026207,0.10162375,1.155019833,-0.10482057
406050.75,0.960065,-0.232729,-0.092453,-0.042037,-0.208873,1.115954,0.015505955,-0.001594109,-0.007935399,0.105218893,1.127188785,-0.095513338
406060.625,0.93342,-0.216105,-0.09514,-0.023504,-0.197875,1.066839,0.021489939,-0.008440314,-0.037455024,0.107522647,1.077217521,-0.076770429
406070.5,0.949309,-0.175035,-0.086345,-0.013917,-0.186266,1.030457,0.065055378,-0.013551111,-0.033116112,0.111429997,1.039279518,-0.064898177
406080.375,1.011643,-0.142032,-0.059224,-0.009444,-0.17099,1.03652,0.120596879,0.001024333,0.016148352,0.129252114,1.04072706,-0.062302141
406090.25,1.063221,-0.116363,-0.044076,-0.013278,-0.167324,1.236621,0.162790359,0.00553483,0.058012571,0.188503971,1.230919838,-0.081900722
406100.125,1.094265,-0.107318,-0.029172,-0.018391,-0.162436,1.163251,0.183556609,0.017514754,0.084335858,0.171103301,1.159294273,-0.081467909
406162,1.015554,-0.085071,-0.06973,-0.106585,-0.121498,1.192356,-0.001026928,-0.003975269,0.021485398,0.648525802,0.998710605,-0.172703123
406172,1.076665,-0.052557,-0.055804,-0.105946,-0.109888,1.189931,0.03833517,-0.01921642,0.078538359,0.657998831,0.989007675,-0.167741077
406182,1.12751,-0.046446,-0.046519,-0.120006,-0.095224,1.214186,0.053576089,-0.022227501,0.127934213,0.685287622,0.998026482,-0.178999185
406192,1.163688,-0.047668,-0.041633,-0.1379,-0.076282,1.259057,0.058730771,-0.024033708,0.163678815,0.728818926,1.020121759,-0.195536321
406202,1.170288,-0.045712,-0.036502,-0.15899,-0.054897,1.27179,0.063401119,-0.024022576,0.169785963,0.753528585,1.015394666,-0.216586354
406212,1.130199,-0.053535,-0.047252,-0.169215,-0.048176,1.259663,0.050354336,-0.023536727,0.131087526,0.751297282,0.999700869,-0.232069138
406222,1.079598,-0.07187,-0.064111,-0.169215,-0.039621,1.229951,0.026106292,-0.020230567,0.083381994,0.739611064,0.969057793,-0.238506748
406232,1.038043,-0.066736,-0.075106,-0.158351,-0.034122,1.182048,0.018264731,-0.031274271,0.042264935,0.714289719,0.92869936,-0.225354211
406317,1.092065,0.078965,-0.045786,-0.078465,-0.059785,1.141422,-0.010780436,-0.016977901,0.095688517,0.615803581,-0.956059305,-0.138966683
406327,1.03682,0.057697,-0.068753,-0.062488,-0.068339,1.098976,-0.010895995,0.001520251,0.040639514,0.602703985,-0.914279982,-0.131008543
406337,0.983042,0.061608,-0.08439,-0.034368,-0.067117,1.037733,-0.024002707,0.006854548,-0.011736029,0.572402891,-0.862241119,-0.107101878
406347,0.959331,0.067231,-0.07877,0.002699,-0.065284,0.958299,-0.024332711,0.000486557,-0.035402483,0.53346109,-0.796011762,-0.066263106
406357,0.987931,0.093144,-0.069975,0.032097,-0.057952,0.893418,-0.038931147,-0.01798606,-0.006148485,0.496845926,-0.744849992,-0.030446519
406367,1.041465,0.127614,-0.054338,0.038488,-0.054286,0.894631,-0.057491685,-0.046669366,0.048047696,0.494538836,-0.748188445,-0.020935896
406377,1.089132,0.159639,-0.034059,0.032097,-0.052453,0.942534,-0.072867763,-0.077707573,0.096131818,0.515878812,-0.790760881,-0.026798432
406387,1.116021,0.180419,-0.02282,0.010368,-0.047565,0.987405,-0.08322741,-0.098498076,0.123363685,0.532299619,-0.831509532,-0.050868189
406448,0.998687,0.193375,-0.052627,0.030819,0.004983,0.853398,-0.00071869,0.006165889,0.018577774,0.221091865,-0.824815518,-0.007780492
406457.875,1.007243,0.217822,-0.038212,0.039766,0.020258,0.795793,-0.018010135,-0.008270438,0.031044265,0.193585317,-0.773101538,0.010814696
406467.75,1.035598,0.251314,-0.02282,0.033375,0.031868,0.785485,-0.039810311,-0.025369022,0.064854097,0.178662148,-0.766199766,0.011571583
406477.625,1.071043,0.27356,-0.012069,0.018676,0.048976,0.792761,-0.049668363,-0.035359286,0.103810046,0.161327607,-0.777930201,0.003930625
406487.5,1.102576,0.305585,-0.008649,-0.001136,0.063641,0.820048,-0.070806185,-0.041302781,0.141232403,0.150277884,-0.808605256,-0.010212143
406497.375,1.120421,0.314386,-0.012558,-0.020947,0.07525,0.857642,-0.073399513,-0.03601183,0.160885497,0.144586328,-0.848560192,-0.026297012
406507.25,1.119199,0.296784,-0.024286,-0.034368,0.082582,0.874014,-0.056348773,-0.021199114,0.156569223,0.138558444,-0.866682432,-0.039554243
406517.125,1.087176,0.277961,-0.039434,-0.051624,0.094191,0.886748,-0.04903149,-0.002641056,0.121765551,0.127301803,-0.882437672,-0.054378333
406577,1.046109,0.320742,-0.033081,-0.058653,0.085637,0.692711,0.004321131,0.005234821,0.094654168,-0.031408633,-0.698061812,-0.048431435
406587,1.065421,0.347878,-0.027706,-0.06824,0.077083,0.689679,-0.009024369,-0.00114706,0.121082458,-0.027233542,-0.694293847,-0.058906691
406597,1.064687,0.3535,-0.028928,-0.072713,0.066085,0.672701,-0.021668311,-0.010078222,0.121956506,-0.019834652,-0.675726946,-0.071977248
406607,1.035109,0.327343,-0.048474,-0.073352,0.059363,0.652084,-0.014249678,0.00265938,0.086620304,-0.015569361,-0.653854658,-0.079685041
406617,0.998687,0.306074,-0.062156,-0.062488,0.047143,0.605394,-0.011972234,0.009630039,0.046271625,-0.005077595,-0.605624556,-0.076303491
406627,0.96422,0.287006,-0.06973,-0.034368,0.034923,0.535662,-0.009979321,0.0108398,0.008334189,0.008041697,-0.535106795,-0.054135041
