time,aX,aY,aZ,gX,gY,gZ,aX_T,aY_T,aZ_T,gX_T,gY_T,gZ_T
3195097,1.007731,0.011493,0.023358,-0.03309,-0.004793,-0.008248,0.012153657,-0.007628753,0.007965051,0.008256356,-0.000409587,-0.033430753
3195107,1.008709,0.013448,0.02458,-0.034368,0.001317,-0.002185,-0.002263843,-0.001913608,0.009093695,0.000503817,0.002252676,-0.034385168
3195117,1.007731,0.015404,0.02287,-0.034368,-0.00296,0.003879,0.00800698,0.007026931,0.008051883,-0.003380613,-0.004477768,-0.034256222
3195127,1.009687,0.014182,0.023603,-0.030534,9.50E-05,0.15062,6.02E-07,-0.003169325,0.010057436,-0.136051385,-0.066093907,-0.027209089
3195137,1.009931,0.016627,0.023358,-0.03309,-0.005404,0.002666,-0.008528267,-0.009930765,0.0102531,-0.000662549,-0.005547804,-0.033166878
3195147,1.005043,0.01736,0.021159,-0.028616,-0.001738,-0.00461,0.00171797,-0.000630327,0.005413923,0.004095616,0.000664106,-0.028739052
3195157,1.013109,0.018582,0.023603,-0.035646,-0.006015,-0.000366,0.004584715,0.010990706,0.013484298,0.001776371,-0.005406844,-0.035701009
3195167,1.010176,0.017115,0.02458,-0.033729,-0.003571,-0.003397,0.004253669,0.009230149,0.010568831,0.003488286,-0.001870965,-0.033856586
3195228,1.012376,0.019071,0.02287,-0.02606,-0.003571,-0.03129,-4.56E-05,-8.96E-05,0.01281385,0.028924102,0.010724231,-0.026820271
3195237.875,1.009687,0.017604,0.024091,-0.029895,9.50E-05,-0.035535,0.002586661,0.011008366,0.010064473,0.030925947,0.015505217,-0.0309779
3195247.75,1.011887,0.015649,0.025557,-0.030534,0.00315,-0.03796,-0.003741912,-0.002440588,0.012320796,0.031933786,0.019645166,-0.031265156
3195257.625,1.005531,0.016382,0.019938,-0.028616,-0.001127,-0.04463,0.013313518,-0.004686198,0.005763031,0.039486712,0.018866441,-0.029947279
3195267.5,1.015554,0.017849,0.022625,-0.028616,-0.000516,-0.045843,-0.000592638,0.004472155,0.015952781,0.040645436,0.019665286,-0.0296976
3195277.375,1.013843,0.015404,0.025069,-0.034368,-0.004182,-0.044024,0.005049634,-0.013807244,0.014163314,0.040226938,0.016093756,-0.035490077
3195287.25,1.010909,0.01736,0.023847,-0.03309,-0.006015,-0.047662,-0.002370791,0.002008725,0.011334465,0.044603118,0.01554662,-0.034229506
3195297.125,1.002109,0.013448,0.022381,-0.034368,-0.001738,-0.0513,0.000425596,-0.000840067,0.002448661,0.045969591,0.020988171,-0.03552694
3195358,1.007243,0.012471,0.019449,-0.029895,-0.00846,-0.027046,0.001972719,0.01438387,0.007403327,0.027275631,0.003857523,-0.030625614
3195367.875,1.00382,0.009048,0.024336,-0.037564,-0.005404,-0.019769,0.002317324,-0.006134076,0.004134305,0.019082509,0.003911998,-0.038100194
3195377.75,1.015309,0.013448,0.02458,-0.032451,-0.005404,-0.018557,-0.005321218,0.012403808,0.015605839,0.018325671,0.002881421,-0.032901369
3195387.625,1.001376,0.01027,0.024091,-0.027338,-0.004182,-0.017344,-0.000358796,-0.005602216,0.001702665,0.016720902,0.003924254,-0.027761149
3195397.5,1.007487,0.011248,0.022381,-0.026699,-0.003571,-0.017344,0.007647335,0.005980104,0.007751576,0.01629038,0.004197086,-0.027265564
3195407.375,1.009198,0.014182,0.023358,-0.029255,-0.004182,-0.007036,-0.001291808,-0.001627735,0.009565753,0.007401636,-0.000574955,-0.029457336
3195417.25,1.008709,0.013693,0.023847,-0.028616,0.002539,-0.005823,0.006766904,-0.015829371,0.008936898,0.003164533,0.005326503,-0.028650365
3195427.125,1.00822,0.016871,0.021648,-0.03309,-0.004182,-0.002791,0.007345903,-0.0120026,0.00849532,0.003209637,-0.001964105,-0.033257592
3195488,1.014087,0.019805,0.025069,-0.031173,-0.004182,-0.01795,-0.001893241,0.00412017,0.01458,0.017073452,0.004133598,-0.031667936
3195498,1.018976,0.020782,0.02458,-0.029895,-0.001127,-0.020982,0.000918843,-0.010489695,0.019429879,0.018433888,0.008661358,-0.030338064
3195508,1.002598,0.018582,0.023847,-0.033729,-0.001738,-0.025227,-0.001869454,0.003013619,0.003047428,0.022535677,0.00951291,-0.034332425
3195518,1.011643,0.019316,0.02287,-0.031812,-0.007849,-0.039779,0.01087622,-0.005382425,0.012013064,0.037958079,0.010624793,-0.033200557
3195528,1.015554,0.017849,0.025069,-0.029895,0.00315,-0.041599,-0.002536262,-0.002509529,0.016013897,0.035277733,0.021126926,-0.030712292
3195538,1.012131,0.018827,0.021892,-0.031173,0.001928,-0.047662,0.011006402,0.002915919,0.012478757,0.040881697,0.022555141,-0.032666371
3195548,1.011887,0.019071,0.022625,-0.029895,-0.002349,-0.053726,0.001564264,-0.005157183,0.012305216,0.048520923,0.021556146,-0.031092837
3195558,1.012131,0.022983,0.025069,-0.035007,-0.003571,-0.061609,-0.002324787,-0.00269568,0.012695987,0.055998635,0.023937527,-0.036401354
3195619,1.011887,0.01296,0.027756,-0.03309,0.002539,-0.088289,-0.005033692,0.001562926,0.01233684,0.077615993,0.040463307,-0.035140014
3195629,1.009687,0.008559,0.023847,-0.03309,-0.002349,-0.088895,-0.011683747,0.003369889,0.009931635,0.080705761,0.036150256,-0.034387876
3195639,1.003576,0.006848,0.021404,-0.034368,0.001928,-0.081012,0.00387743,-0.001064031,0.003819529,0.071288797,0.036705402,-0.036310351
3195649,1.007731,0.007092,0.022625,-0.029895,-0.00296,-0.079193,-0.005235108,0.011658585,0.00792888,0.072142345,0.031086018,-0.031672471
3195659,1.005043,0.005626,0.024091,-0.031812,-0.001127,-0.075555,-0.013014405,0.023419551,0.004990353,0.068281537,0.03065624,-0.033461292
3195669,1.005043,-0.056713,0.021648,-0.035007,-0.002349,-0.063428,0.02238108,-0.047182798,0.005519419,0.057616299,0.02477152,-0.036343541
3195679,1.00382,0.00367,0.020915,-0.032451,0.000706,-0.060396,0.003785031,-0.007512055,0.004009333,0.053386241,0.026746124,-0.033701583
3195689,1.007976,0.002203,0.021404,-0.026699,-0.00296,-0.0513,0.004076831,-0.00905395,0.008156737,0.046901655,0.019504945,-0.027804318
3195750,1.002354,0.002203,0.024336,-0.029895,-0.000516,-0.000366,-0.005557207,0.004090675,0.002628056,3.52E-05,-0.000683338,-0.029893863
3195759.875,1.005531,0.002203,0.021159,-0.029255,-0.00296,0.009943,0.007107618,-0.006220421,0.005711657,-0.00848502,-0.006980611,-0.02903025
3195769.75,1.002843,0.005137,0.023358,-0.03309,-0.001738,0.020857,-0.00839071,0.002077334,0.003090897,-0.01856794,-0.010790597,-0.032738018
3195779.625,1.004065,0.00587,0.021159,-0.036925,-0.006626,0.028134,0.005261388,0.001938185,0.004289423,-0.023528234,-0.018291029,-0.03620417
3195789.5,1.007731,0.003425,0.022137,-0.035646,-0.004182,0.034197,-0.003607567,-0.007342914,0.007946731,-0.02970551,-0.018443666,-0.035142213
3195799.375,1.004065,0.007581,0.021404,-0.03309,-0.004182,0.038442,0.002554997,0.006143376,0.004299685,-0.033735071,-0.020563438,-0.032082934
3195809.25,1.005287,0.00587,0.021404,-0.031173,-0.003571,0.043899,0.005574002,-0.010076165,0.005466032,-0.038948831,-0.021888786,-0.030257226
3195819.125,1.007976,0.008804,0.024824,-0.026699,-0.004182,0.046325,0.001300466,-0.008912187,0.008279842,-0.040754718,-0.02351009,-0.025742183
3195880,1.016531,0.024449,0.018227,-0.03309,-0.001127,0.00873,0.00631563,-0.007127834,0.016943734,-0.008480593,-0.004072128,-0.032923069
3195889.875,1.014087,0.027872,0.021404,-0.027977,-0.010293,-0.010067,0.007274498,0.006035208,0.014651704,0.012434298,-0.004704451,-0.028517701
3195899.75,1.022398,0.030561,0.024824,-0.039481,-0.003571,-0.028258,-0.002158385,-0.004832464,0.023142153,0.025761278,0.009737239,-0.040144224
3195909.625,1.014331,0.033495,0.020182,-0.031812,0.001317,-0.05797,-0.010520139,0.008593254,0.01499364,0.051116177,0.026438527,-0.032594469
3195919.5,1.026798,0.03105,0.019449,-0.030534,-0.006626,-0.085863,0.003859745,0.006286661,0.027424975,0.079362891,0.031183497,-0.032829937
3195929.375,1.028998,0.025672,0.024824,-0.027338,0.001928,-0.105267,-0.00977094,-0.003351114,0.029565668,0.093675449,0.047216597,-0.028770262
3195939.25,1.013354,0.025183,0.020915,-0.033729,0.000706,-0.121032,0.002870938,0.004520567,0.013868469,0.107985048,0.052696205,-0.036731843
3195949.125,1.018976,0.022005,0.022137,-0.029895,-0.00296,-0.145287,0.003304439,0.001073766,0.019448029,0.13159158,0.059717639,-0.033589353
3196010,1.024109,0.01516,0.025802,-0.034368,-0.001738,-0.258071,-0.006256545,0.002213134,0.024524656,0.233253004,0.108639818,-0.039689382
3196020,1.024354,0.012471,0.022625,-0.03309,-0.002349,-0.290209,-0.003666565,-0.01553174,0.024555443,0.262697717,0.122322617,-0.036726237
3196030,1.020687,0.011248,0.020426,-0.03309,-0.005404,-0.314463,0.00354852,-0.005299247,0.020933405,0.285799675,0.129418859,-0.039754681
3196040,1.026065,0.010026,0.024824,-0.03309,0.00315,-0.335686,-0.001249527,0.003988799,0.026405701,0.301459166,0.14560633,-0.041365798
3196050,1.02142,0.006848,0.024091,-0.029255,9.50E-05,-0.362366,-0.010175783,0.000702426,0.021676097,0.327435444,0.154114691,-0.034636313
3196060,1.016776,0.000736,0.018716,-0.031173,-0.003571,-0.392078,0.00458941,0.005261456,0.016924539,0.35563027,0.163000771,-0.040835353
3196070,1.023376,-0.006109,0.025069,-0.029895,-0.000516,-0.407844,-0.00348674,0.00728491,0.023669373,0.368900832,0.171918021,-0.039838117
3196080,1.016287,-0.017599,0.024824,-0.027977,0.002539,-0.418758,0.001500302,-0.003174404,0.016736394,0.377513354,0.179358781,-0.038229792
3196141,1.017265,-0.039845,0.023358,-0.03309,0.006816,-0.412088,0.004408851,-0.01387856,0.018208843,0.369980224,0.179761866,-0.041931266
3196151,1.008709,-0.0374,0.019449,-0.031173,0.006205,-0.418758,0.001219583,4.69E-05,0.009588719,0.376595203,0.181527063,-0.039906123
3196161,1.020931,-0.039112,0.020915,-0.03309,0.004372,-0.43513,-7.43E-05,0.009811927,0.021846864,0.392312339,0.186055673,-0.043891854
3196171,1.021909,-0.041312,0.021892,-0.036285,0.008038,-0.45514,-0.009785215,0.002103381,0.022929015,0.409397316,0.197725202,-0.042804348
3196181,1.01702,-0.050602,0.017494,-0.029895,0.006205,-0.477576,0.004060604,0.003853173,0.018412955,0.430318651,0.205347189,-0.040858774
3196191,1.017509,-0.056958,0.022381,-0.03309,0.001317,-0.493948,-0.004733882,0.004704803,0.019325828,0.447620618,0.207081951,-0.042827065
3196201,1.013354,-0.06527,0.020426,-0.03309,0.006816,-0.493341,-0.003638958,0.008024467,0.015621036,0.445026078,0.211164935,-0.043450067
3196211,1.004065,-0.07407,0.020182,-0.034368,0.00315,-0.506075,0.000401115,-0.000523137,0.006995416,0.458135106,0.213109972,-0.044714118
3196272,1.002109,-0.105117,0.01896,-0.031173,0.002539,-0.439375,0.010860951,-0.017365116,0.007577295,0.398069772,0.184163894,-0.040653531
3196281.875,1.005043,-0.110496,0.023114,-0.027977,0.004372,-0.4418,0.002148722,-0.014682909,0.011254098,0.399790657,0.186608448,-0.036521015
3196291.75,1.003087,-0.109273,0.01725,-0.033729,0.007427,-0.432705,-0.000177082,-0.002381657,0.009165981,0.390762569,0.184476955,-0.041222451
3196301.625,1.009931,-0.111718,0.016273,-0.033729,0.006816,-0.435736,-0.000594101,0.007776236,0.016191677,0.39393144,0.184574231,-0.042430403
3196311.5,1.003087,-0.117585,0.017983,-0.033729,9.50E-05,-0.444226,-0.005602008,0.010664392,0.010043582,0.404788919,0.181472085,-0.041087798
3196321.375,1.006754,-0.123697,0.018472,-0.041398,0.006816,-0.447864,-0.007207461,-0.010001005,0.014417967,0.405838422,0.188634342,-0.045328522
3196331.25,1.002354,-0.12932,0.017006,-0.036925,0.008038,-0.4418,-0.001480939,-0.00425582,0.010794788,0.399616818,0.187113869,-0.043704732
3196341.125,1.00162,-0.130297,0.013829,-0.029255,0.001928,-0.444832,0.001841179,-0.003898452,0.010144834,0.404606265,0.183786493,-0.035374786
3196402,1.002598,-0.150099,0.013829,-0.037564,-0.000516,-0.473938,0.007158035,-0.010806122,0.013782862,0.432609192,0.192076944,-0.044545292
3196412,1.007731,-0.157922,0.017739,-0.036285,0.00315,-0.487884,0.003798878,-0.00807374,0.020145177,0.44391855,0.200697475,-0.044879457
3196422,1.001865,-0.161345,0.018716,-0.033729,0.00315,-0.504862,0.001189766,-0.001999792,0.014943625,0.459475701,0.207475392,-0.043234815
3196432,1.007243,-0.163545,0.01896,-0.035007,0.003761,-0.52184,-0.003431119,0.006464911,0.020583824,0.475037104,0.214258263,-0.044606808
3196442,1.004065,-0.168923,0.018716,-0.031812,0.004372,-0.526085,-0.010967864,0.000213472,0.018288492,0.478964071,0.216902794,-0.036648891
3196452,1.003087,-0.171368,0.01725,-0.034368,0.006816,-0.540031,0.001180748,0.003011688,0.017761082,0.490488394,0.224099517,-0.045405287
3196462,1.00162,-0.175768,0.013341,-0.031812,-0.000516,-0.55701,0.002309119,0.009981942,0.016961172,0.509088531,0.224376841,-0.041908357
3196472,1.002109,-0.188725,0.019693,-0.031173,-0.001738,-0.571563,0.001810215,-0.004144407,0.019905356,0.522800352,0.229412067,-0.041339261
3196533,0.996242,-0.226617,0.017494,-0.029895,0.009871,-0.569743,0.013317482,-0.029824088,0.021319047,0.516682636,0.238676123,-0.040877813
3196543,0.984998,-0.231751,0.011875,-0.034368,0.014759,-0.571563,0.016257749,-0.024923679,0.011526123,0.516964061,0.242332351,-0.04589599
3196553,0.980354,-0.239818,0.014807,-0.034368,0.00926,-0.566712,0.012603109,-0.024655512,0.008989174,0.515082677,0.234796715,-0.04460646
3196563,0.979376,-0.249841,0.01554,-0.030534,0.011704,-0.550946,0.009325952,-0.025776106,0.010488983,0.499818746,0.230687708,-0.039688866
3196573,0.969353,-0.254242,0.008454,-0.035007,0.005594,-0.537,0.013148939,-0.019375808,0.001901885,0.490229305,0.218022547,-0.042037849
3196583,0.97082,-0.26182,0.011142,-0.028616,0.00926,-0.52184,0.009772241,-0.016569653,0.00538315,0.474627219,0.215847781,-0.036882882
3196593,0.966176,-0.272821,0.014562,-0.035646,0.002539,-0.503043,0.005748964,-0.018982965,0.003865533,0.461115554,0.20002051,-0.04115319
3196603,0.961042,-0.275266,0.010653,-0.033729,0.004372,-0.472725,0.010768391,-0.020743943,-0.000529984,0.432552947,0.189661184,-0.039398847
3196664,0.955665,-0.301912,0.013097,-0.036925,0.006205,-0.296879,0.013948057,-0.0344405,0.001617334,0.272008287,0.117866933,-0.040718254
3196674,0.956642,-0.297757,0.011386,-0.032451,0.001928,-0.267773,0.007924136,-0.017655859,0.001787536,0.246946661,0.102806567,-0.034746518
3196684,0.967153,-0.295312,0.011386,-0.02606,9.50E-05,-0.250795,0.001538531,0.000213238,0.011296856,0.231664494,0.095480915,-0.028146431
3196694,0.965687,-0.29849,0.013097,-0.029255,-0.000516,-0.238061,-0.005223768,0.008558953,0.010800994,0.22086101,0.088430785,-0.030488875
3196704,0.95542,-0.306802,0.011875,-0.03309,0.00315,-0.224721,-0.005534971,0.01168902,0.003458315,0.207913994,0.084578342,-0.03496675
3196714,0.947109,-0.317558,0.011631,-0.028616,9.50E-05,-0.202286,-0.006631833,0.012917331,-0.001109124,0.188296905,0.073681259,-0.029220849
3196724,0.934153,-0.320981,0.011142,-0.027977,-0.00296,-0.155595,0.001513846,-0.009824454,-0.012226766,0.14664738,0.052624773,-0.026952873
3196734,0.94002,-0.321714,0.009676,-0.03309,-0.000516,-0.105873,0.002427381,-0.00815039,-0.006441344,0.100903842,0.033004726,-0.032146683
3196795,0.944909,-0.317558,0.012608,-0.031173,-0.006015,0.031772,0.001614305,0.008645099,-0.003115995,-0.023023715,-0.027583027,-0.026953317
3196805,0.94442,-0.320003,0.013829,-0.031173,-0.002349,0.071792,-0.000957284,-0.007202138,-0.002769079,-0.060948021,-0.040321549,-0.028122525
3196815,0.946131,-0.314625,0.011142,-0.029895,-0.005404,0.10211,0.007369411,-0.012787709,-0.00297489,-0.087831238,-0.054598794,-0.025573651
3196825,0.951509,-0.309491,0.011142,-0.027338,-0.004793,0.134248,0.010200199,0.005427084,0.000572188,-0.117852443,-0.066657803,-0.021457018
3196835,0.959087,-0.304113,0.013829,-0.032451,-0.00846,0.16396,0.002906233,-0.001785271,0.006236651,-0.142976814,-0.083046311,-0.025854623
3196845,0.963242,-0.300935,0.016028,-0.021586,-0.004182,0.166385,-0.009234417,-0.006347724,0.009221657,-0.147911567,-0.077106578,-0.018551466
3196855,0.960309,-0.299223,0.011386,-0.025421,-0.001738,0.191246,0.001394168,0.00732606,0.005883594,-0.17130192,-0.08631662,-0.020721338
3196865,0.955176,-0.301912,0.016028,-0.027977,-0.006626,0.214288,-0.001233985,0.001651974,0.001880578,-0.190167006,-0.100638424,-0.021316206
3196927,0.980598,-0.26891,0.020671,-0.026699,-0.007237,0.29069,-0.014397189,0.024476101,0.01661495,-0.260029812,-0.13156838,-0.018443019
3196936.875,0.983042,-0.268665,0.020426,-0.020947,-0.001738,0.287658,-0.008024942,0.013830843,0.019173187,-0.260111566,-0.123794165,-0.014349221
3196946.75,0.989887,-0.259864,0.020915,-0.013278,-0.010293,0.268861,-0.007765373,0.010508133,0.023558639,-0.240335543,-0.121569424,-0.005309455
3196956.625,0.994287,-0.252286,0.017739,-0.015196,-0.015792,0.262797,-0.004673332,0.00618879,0.025918805,-0.232467686,-0.124328859,-0.006608985
3196966.5,1.000643,-0.244463,0.014318,-0.010722,-0.00846,0.225809,-0.000378156,0.002718876,0.030167968,-0.202008882,-0.101700047,-0.005074401
3196976.375,1.006998,-0.241529,0.015051,-0.008805,-0.012126,0.21065,0.00261127,-0.007200322,0.035639464,-0.186875266,-0.098322454,-0.002884513
3196986.25,1.003087,-0.238596,0.014807,-0.002414,-0.012126,0.165779,-0.009379909,0.006929341,0.031113393,-0.146417036,-0.078698502,0.002035085
3196996.125,1.003087,-0.239329,0.012119,0.002699,-0.012126,0.133641,-0.0066336,0.007373194,0.031266407,-0.117519191,-0.064485582,0.006714967
3197057,1.011154,-0.262065,0.043149,0.088976,-0.030456,-0.048875,-0.019188982,-0.014195536,0.045180646,0.049350612,0.013696013,0.092790077
3197067,1.027532,-0.278199,0.045103,0.124125,-0.040843,-0.111331,-0.010812598,-0.014113316,0.065333224,0.108127288,0.039673564,0.127295938
3197077,1.039998,-0.29629,0.047791,0.146493,-0.045732,-0.21987,-0.003289731,-0.016303517,0.082308162,0.20766486,0.087140224,0.145520854
3197087,1.035843,-0.310224,0.053899,0.180365,-0.05062,-0.314463,0.001873586,-0.021711124,0.082423147,0.293739732,0.13251495,0.173601999
3197097,1.061998,-0.32147,0.061229,0.219988,-0.057341,-0.437556,0.003708117,-0.018445225,0.111115533,0.406267715,0.190382326,0.204546027
3197107,1.096954,-0.33027,0.066115,0.255138,-0.055508,-0.569743,0.004297454,-0.009164047,0.147455923,0.523411521,0.25926567,0.227168032
3197117,1.123354,-0.334671,0.066848,0.269198,-0.058563,-0.700718,0.000375804,-0.026797721,0.173745834,0.641207191,0.312256473,0.241354795
3197127,1.179088,-0.336627,0.06074,0.287732,-0.062229,-0.801982,0.002859356,-0.011437609,0.227646774,0.733292688,0.356254762,0.255346153
3197188,1.159043,-0.348605,0.034353,0.238522,-0.027401,-1.083942,0.024196021,-0.019082421,0.210428298,0.975732777,0.492914286,0.193790799
3197198,1.119443,-0.334671,0.036063,0.227657,-0.006626,-0.999051,0.013468499,-0.012511538,0.168811323,0.889248369,0.474736711,0.18394811
3197208,1.075687,-0.327337,0.037774,0.196981,0.005594,-0.862012,0.009239988,-0.009135339,0.124948922,0.761489967,0.421923888,0.154954054
3197218,1.053687,-0.325381,0.040705,0.181004,0.023924,-0.731643,0.00484961,-0.00358405,0.103516933,0.636377597,0.380563165,0.137227974
3197228,1.034376,-0.320736,0.041927,0.15608,0.038589,-0.573988,0.01079281,0.004374182,0.083710084,0.490184256,0.32111332,0.109169286
3197238,1.001865,-0.310224,0.046814,0.143937,0.053864,-0.433917,0.006951543,0.015408572,0.049703868,0.358074441,0.27298698,0.095728558
3197248,0.981576,-0.306068,0.051944,0.121569,0.061196,-0.248976,-0.002085654,-0.001466692,0.029495382,0.189107346,0.193358553,0.085813183
3197258,0.963242,-0.307046,0.054876,0.101757,0.062419,-0.074949,-0.00276915,-0.008841578,0.012441569,0.032957011,0.114760541,0.074912114
3197319,1.07251,-0.344694,0.005034,-0.141096,-0.083004,0.435005,0.031396559,0.015182064,0.126010993,-0.345455011,-0.296585708,-0.093406898
3197329,1.07471,-0.359117,0.004301,-0.197974,-0.126386,0.443494,0.019979333,0.006771713,0.132934275,-0.327949267,-0.353859188,-0.138155736
3197339,1.073732,-0.355695,0.017006,-0.227372,-0.166102,0.453803,0.016083523,0.003120978,0.131123391,-0.319693507,-0.400225998,-0.151129996
3197349,1.07251,-0.35325,0.028,-0.265079,-0.199708,0.462898,0.013701999,-0.000323504,0.129450934,-0.312390576,-0.443306484,-0.174115505
3197359,1.07471,-0.348605,0.036552,-0.289364,-0.235758,0.458653,0.005157073,-0.013094508,0.130338453,-0.292562044,-0.476767725,-0.191770489
3197369,1.086443,-0.344205,0.040461,-0.305341,-0.271197,0.431367,-0.004972426,0.010590031,0.140322627,-0.252179374,-0.503087906,-0.190175053
3197379,1.105999,-0.347383,0.038995,-0.314288,-0.30297,0.382858,-0.009790378,-0.001603379,0.159884013,-0.194423986,-0.509878273,-0.19842247
3197389,1.115776,-0.34885,0.034353,-0.329626,-0.332299,0.313126,-0.005982829,0.001832542,0.16952699,-0.117609962,-0.51075603,-0.205961142
3197450,1.070798,-0.355206,-0.001563,-0.544359,-0.569374,-0.107086,0.01293903,-0.001159505,0.128101653,0.386152276,-0.604712392,-0.342330582
3197460,1.055154,-0.358629,0.005034,-0.598043,-0.598092,-0.130734,-0.001902307,0.000409937,0.114444381,0.426861431,-0.640962744,-0.373385764
3197470,1.040732,-0.354473,0.011875,-0.636388,-0.631086,-0.163478,-0.004731862,-0.002388157,0.099494032,0.470313868,-0.669849731,-0.400113091
3197480,1.02802,-0.351783,0.013585,-0.686237,-0.652472,-0.190765,-0.007723888,0.002334092,0.086598291,0.507234456,-0.697330643,-0.435287718
3197490,1.01042,-0.354717,0.017739,-0.716274,-0.667748,-0.218657,-0.011153814,4.13E-05,0.07096358,0.540071838,-0.714308419,-0.452584368
3197500,0.99722,-0.366207,0.024824,-0.752063,-0.673858,-0.23321,-0.010402075,-0.014615668,0.06247339,0.555852882,-0.728824486,-0.483645229
3197510,0.971798,-0.357651,0.040705,-0.779543,-0.670192,-0.241093,-0.023164857,-0.020371328,0.035862388,0.560338772,-0.73453354,-0.511323166
3197520,0.935376,-0.346405,0.062451,-0.785934,-0.66897,-0.244125,-0.042996174,-0.030414615,-0.001976407,0.563455901,-0.734319536,-0.517786052
3197582,0.836131,-0.392365,0.141612,-0.565449,-0.563264,-0.239274,-0.086977199,-0.126904384,-0.078344129,0.491955954,-0.578336716,-0.343157302
3197592,0.822686,-0.396276,0.152363,-0.517518,-0.547988,-0.22654,-0.093072078,-0.133702058,-0.088669788,0.467168946,-0.557393069,-0.300835907
3197602,0.815353,-0.394321,0.153096,-0.464474,-0.534546,-0.222902,-0.092349718,-0.129495886,-0.095328625,0.451296929,-0.532213725,-0.253457013
3197612,0.812419,-0.397988,0.157738,-0.401843,-0.509494,-0.205317,-0.092894321,-0.130484037,-0.095762798,0.41764749,-0.498147101,-0.201586318
3197622,0.803864,-0.391631,0.170443,-0.3341,-0.482609,-0.184095,-0.103568393,-0.127413964,-0.104644061,0.379932188,-0.461380215,-0.145619559
3197632,0.788219,-0.391142,0.175818,-0.279138,-0.451447,-0.158021,-0.104143199,-0.128935324,-0.118113895,0.338164728,-0.426259971,-0.103150894
3197642,0.753997,-0.377941,0.170687,-0.19414,-0.421507,-0.143468,-0.096925408,-0.122368606,-0.153763439,0.304999937,-0.376583611,-0.033187045
3197652,0.738841,-0.364251,0.17142,-0.112337,-0.377514,-0.116182,-0.101041856,-0.116234347,-0.172818188,0.255589941,-0.320189981,0.028050618
3197714,0.689952,-0.36694,0.1443,0.260251,-0.169768,0.303424,-0.066328743,-0.11484446,-0.216474337,-0.243921501,-0.163605231,0.319927352
3197724,0.676019,-0.355695,0.137215,0.290927,-0.147161,0.398623,-0.059370141,-0.095998288,-0.232140577,-0.341409805,-0.164803742,0.348531559
3197734,0.670397,-0.353006,0.120356,0.319047,-0.127608,0.466536,-0.041002355,-0.077349434,-0.237853812,-0.41201716,-0.158917207,0.375123726
3197744,0.675041,-0.350561,0.115469,0.341415,-0.109888,0.536268,-0.032572606,-0.061262034,-0.23378042,-0.481833722,-0.158330134,0.398736474
3197754,0.703641,-0.328804,0.102276,0.34461,-0.090947,0.582959,-0.023020844,-0.023929756,-0.21732477,-0.527481665,-0.159950635,0.403791397
3197764,0.736886,-0.31218,0.090304,0.347806,-0.079338,0.610245,-0.013232442,0.006040398,-0.194766768,-0.552620286,-0.16274281,0.409619445
3197774,0.74373,-0.315603,0.084196,0.333107,-0.072005,0.620553,-0.005746126,0.000505691,-0.187722179,-0.562722923,-0.172605021,0.393422722
3197784,0.75253,-0.322937,0.080775,0.31713,-0.06284,0.625404,-0.000338809,-0.000725209,-0.177130833,-0.56963721,-0.173271221,0.375687369
3197844,0.824153,-0.30998,0.099588,0.179726,-0.081171,0.312519,-0.019904632,0.022618861,-0.114378337,-0.263974812,-0.122050443,0.227989648
3197854,0.835397,-0.284555,0.109117,0.159275,-0.082393,0.218533,-0.031840765,0.034369244,-0.111984721,-0.17448943,-0.09614688,0.200556776
3197864,0.84982,-0.266465,0.111805,0.138824,-0.082393,0.12879,-0.034943387,0.042111505,-0.104062744,-0.090038982,-0.07028794,0.172046972
3197874,0.857397,-0.24813,0.110583,0.113261,-0.073227,0.012368,-0.034330995,0.047692354,-0.102518226,0.014402991,-0.026912102,0.131952672
3197884,0.85862,-0.229551,0.109117,0.077472,-0.073227,-0.097991,-0.033387776,0.04999204,-0.10657147,0.116832389,0.003919221,0.085446901
3197894,0.867909,-0.229795,0.106429,0.053187,-0.064673,-0.223508,-0.022246229,0.037938097,-0.096969152,0.228325143,0.053330546,0.044617954
3197904,0.883309,-0.247885,0.109117,0.018037,-0.046954,-0.460598,-0.005774923,0.013872989,-0.076223797,0.436148615,0.154504134,-0.024153409
3197914,0.896264,-0.253753,0.119623,0.007172,-0.036566,-0.416333,-0.012955454,0.008500978,-0.060984934,0.391857254,0.141892383,-0.032188834
3197975,0.923887,-0.23664,0.15896,-0.010722,0.113744,-0.807439,-0.040080698,0.006560852,-0.033985273,0.679670564,0.426421999,-0.145679788
3197985,0.918264,-0.238596,0.160914,-0.011361,0.139407,-0.830481,-0.025436594,-0.002293264,-0.038034376,0.687528034,0.457513699,-0.165071178
3197995,0.908487,-0.243974,0.168,-0.003053,0.163236,-0.843821,-0.016720293,-0.011573956,-0.044655865,0.68785328,0.484662987,-0.17506812
3198005,0.894309,-0.253753,0.172153,0.000782,0.184011,-0.828662,-0.00808173,-0.01999347,-0.054827648,0.664506146,0.495302574,-0.183434763
3198015,0.894798,-0.270865,0.176796,0.007172,0.201731,-0.81229,0.001484353,-0.028816404,-0.048971322,0.641950711,0.503307579,-0.187463712
3198025,0.891375,-0.280155,0.181438,0.017398,0.218839,-0.781365,0.003812523,-0.030702926,-0.048685774,0.60752825,0.506008768,-0.183273057
3198035,0.894553,-0.29409,0.180949,0.026345,0.238392,-0.751653,0.010408396,-0.032287215,-0.041717297,0.573612508,0.511128529,-0.179508648
3198045,0.904331,-0.306802,0.18046,0.033375,0.252445,-0.724973,0.016867986,-0.039812636,-0.029104402,0.543870491,0.51490574,-0.171770741
3198106,0.923153,-0.350072,0.197075,0.116456,0.30927,-0.45514,0.021024212,-0.065035174,0.004454494,0.281001257,0.482927043,-0.064669294
3198115.875,0.936353,-0.359851,0.194387,0.126043,0.312325,-0.423003,0.024687678,-0.056666665,0.019909504,0.251622084,0.475448494,-0.054775341
3198125.75,0.957131,-0.378675,0.185591,0.135629,0.314769,-0.40845,0.036704944,-0.051551115,0.043998925,0.238305368,0.474628127,-0.047379791
3198135.625,0.968131,-0.394321,0.18046,0.139463,0.316602,-0.390259,0.042956675,-0.04869867,0.058827493,0.221696312,0.46997737,-0.044281591
3198145.5,0.97082,-0.391876,0.180705,0.137546,0.322712,-0.372068,0.034970725,-0.037316274,0.06117723,0.203031218,0.466978622,-0.046966212
3198155.375,0.968376,-0.387231,0.174841,0.143937,0.316602,-0.353877,0.031249497,-0.02346421,0.056760238,0.189766469,0.456857,-0.038131165
3198165.25,0.959087,-0.380875,0.175818,0.144576,0.312325,-0.319921,0.020479785,-0.013028217,0.046535452,0.161184723,0.440176937,-0.032593259
3198175.125,0.948087,-0.379897,0.175085,0.140103,0.30927,-0.28657,0.020511262,-0.016210908,0.035935298,0.132150968,0.423152264,-0.029621465
3198235,0.988176,-0.419256,0.166778,0.07875,0.251834,-0.247157,0.037289644,-0.020638882,0.085479535,0.120079156,0.335457832,-0.061298843
3198245,0.986709,-0.427323,0.173864,0.074277,0.246946,-0.255039,0.025847332,-0.02101488,0.088723371,0.129967591,0.331905878,-0.06701645
3198255,0.982798,-0.434413,0.171176,0.063412,0.238392,-0.255039,0.023354467,-0.016809079,0.087694723,0.134218015,0.319541869,-0.07599498
3198265,0.979376,-0.443947,0.172398,0.058938,0.223116,-0.255646,0.018994437,-0.015081232,0.088760362,0.141776639,0.30434553,-0.076697444
3198275,0.97302,-0.452014,0.172886,0.064051,0.22556,-0.261103,0.014972414,-0.012840746,0.086547324,0.146417572,0.309649165,-0.076380037
3198285,0.970087,-0.46106,0.173375,0.06469,0.208452,-0.267773,0.009196633,-0.013927647,0.087853595,0.160238421,0.297723367,-0.070879173
3198295,0.97302,-0.466927,0.165068,0.067247,0.206008,-0.282932,0.01023886,-0.006204995,0.091738454,0.175845019,0.301770893,-0.070886032
3198305,0.978887,-0.480373,0.163358,0.062134,0.194398,-0.30173,0.017011238,-0.013926584,0.10235225,0.197830963,0.296892198,-0.073553667
3198365,0.899931,-0.471816,0.157005,0.035931,0.124131,-0.256859,0.015085782,-0.027504949,0.027692858,0.185778183,0.210561545,-0.061857823
3198375,0.891131,-0.474016,0.15334,0.03018,0.112522,-0.223508,0.011474456,-0.020936519,0.020660954,0.160462869,0.185675438,-0.057481809
3198385,0.889175,-0.474994,0.147965,0.021871,0.103357,-0.185914,0.007734917,-0.010532122,0.018810271,0.130362143,0.160180502,-0.055434142
3198395,0.892842,-0.481595,0.145277,0.007812,0.091747,-0.150744,0.003163606,-0.002739164,0.024787039,0.103667399,0.130888608,-0.057650113
3198405,0.894309,-0.489662,0.143567,0.004616,0.080138,-0.120426,0.008670808,0.007058287,0.029584354,0.080298736,0.108448235,-0.052315593
3198415,0.895531,-0.495529,0.154317,-0.003692,0.072806,-0.093746,3.62E-05,0.014777926,0.034949327,0.058991743,0.08821803,-0.053293624
3198425,0.890398,-0.49504,0.15505,-0.009444,0.064252,-0.068279,0.006684233,-0.002887654,0.030466246,0.038711991,0.070320719,-0.049354926
3198435,0.884531,-0.49064,0.158471,0.000782,0.056919,-0.034322,0.00210619,-0.003541674,0.02382556,0.009750095,0.057586776,-0.031734565
3198496,0.869131,-0.501641,0.140635,0.035292,0.016592,0.091196,0.0112918,-0.009347663,0.013210594,-0.092511741,-0.001472845,0.035734279
3198505.875,0.880131,-0.500419,0.138925,0.037849,0.006816,0.100291,0.0008523,-0.004970633,0.021921951,-0.097814411,-0.011289868,0.042920498
3198515.75,0.885509,-0.496996,0.132817,0.047435,0.00315,0.09544,-0.001234274,-0.008026372,0.02406329,-0.092889984,-0.00827127,0.051689771
3198525.625,0.877931,-0.488684,0.132084,0.053187,-0.007237,0.091802,-0.014134271,-0.007566328,0.013293664,-0.086724921,-0.012625979,0.060234633
3198535.5,0.869375,-0.480373,0.1206,0.05063,-0.022513,0.091802,0.004945548,-0.009106675,0.000503913,-0.080187824,-0.026620996,0.066023289
3198545.375,0.864731,-0.47475,0.116202,0.052548,-0.028623,0.08877,-0.004945141,5.36E-05,-0.006709654,-0.076081163,-0.029173647,0.069435122
3198555.25,0.861797,-0.481595,0.104719,0.048074,-0.038399,0.092408,-0.003279411,-0.003304817,-0.007240107,-0.076295353,-0.040533085,0.069720293
3198565.125,0.872553,-0.485017,0.100321,0.034014,-0.048787,0.0821,0.001033683,0.000770224,0.00332092,-0.061660731,-0.051923108,0.061477464
3198625,0.977909,-0.517287,0.076133,-0.024143,-0.095835,-0.120426,0.017412498,0.021094292,0.108575628,0.148544483,-0.044913821,0.01367254
3198635,1.004309,-0.52291,0.070758,-0.035007,-0.089725,-0.180456,0.012974543,0.017359172,0.13428764,0.203173207,-0.023514691,-0.002853187
3198645,1.016776,-0.52731,0.064405,-0.066962,-0.09278,-0.224115,0.011586132,0.006188926,0.147111474,0.248409385,-0.024694251,-0.031662949
3198655,1.00822,-0.52022,0.068559,-0.075909,-0.083615,-0.285358,0.012185573,-0.014348335,0.136434068,0.302867874,0.00157795,-0.049511551
3198665,0.980598,-0.501641,0.074178,-0.10275,-0.069561,-0.316282,0.009791292,-0.003990866,0.103905209,0.329048822,0.011679556,-0.083791762
3198675,0.938553,-0.476461,0.079553,-0.112337,-0.05673,-0.332048,0.010311083,-0.000261313,0.055518409,0.33917335,0.02292414,-0.102614283
3198685,0.89602,-0.454704,0.087616,-0.120006,-0.041454,-0.325378,0.009156369,-0.001339337,0.00856259,0.327056993,0.028882636,-0.119122767
3198695,0.873775,-0.441502,0.093969,-0.118728,-0.02679,-0.285964,0.000317326,-0.002798409,-0.016521984,0.285046243,0.027324005,-0.120795237
3198757,0.856175,-0.485506,0.10423,-0.119367,0.030646,-0.002791,0.006647575,-0.035036208,-0.01088733,0.001504476,-0.029367572,-0.119711027
3198767,0.876953,-0.494796,0.110339,-0.100194,0.035534,0.02207,0.001822404,-0.019361034,0.012751781,-0.024904705,-0.026952236,-0.102185715
3198777,0.895531,-0.50433,0.114004,-0.094442,0.037367,0.039048,-0.003715518,-0.002926153,0.034069178,-0.041478915,-0.030244179,-0.095943314
3198787,0.917775,-0.514353,0.112049,-0.077187,0.042255,0.051175,-0.008940154,-0.007910955,0.057961449,-0.055334159,-0.021431719,-0.082710404
3198797,0.938553,-0.52291,0.107407,-0.06121,0.048365,0.046931,0.007596399,0.002843842,0.0797162,-0.05576843,-0.007674823,-0.071549531
3198807,0.933664,-0.518754,0.106429,-0.049706,0.053253,0.036016,-0.000949518,-0.004978771,0.073375805,-0.047806659,0.006253349,-0.065415134
3198817,0.908975,-0.49993,0.101054,-0.041398,0.053864,0.047537,0.012243508,-0.002235627,0.042220018,-0.060190542,0.006863024,-0.056611737
3198827,0.88282,-0.485262,0.098611,-0.036925,0.048976,0.060877,0.011357613,-0.002106396,0.012146757,-0.07121221,0.000399148,-0.04895687
3198888,0.984265,-0.474016,0.091281,-0.026699,0.015981,0.18397,0.002597883,0.044499653,0.09536022,-0.174739392,-0.064200867,-0.012553228
3198897.875,1.01482,-0.494552,0.092747,-0.038842,0.001317,0.171842,0.003022517,0.027063814,0.132387625,-0.157195061,-0.077247266,-0.019044188
3198907.75,1.026065,-0.493818,0.091525,-0.046511,-0.012737,0.16214,0.006004975,0.017442192,0.142235587,-0.14259732,-0.088500005,-0.021181058
3198917.625,1.011154,-0.482084,0.100077,-0.04715,-0.023124,0.168811,0.004726557,0.006623841,0.124627309,-0.145201895,-0.099533703,-0.016261833
3198927.5,0.985242,-0.465216,0.106918,-0.042037,-0.04451,0.198522,0.005423923,0.003178697,0.094769227,-0.165502806,-0.125560002,0.001655612
3198937.375,0.95542,-0.444436,0.114492,-0.036925,-0.061618,0.253702,0.002947929,2.98E-05,0.059929461,-0.210637139,-0.157272807,0.020547459
3198947.25,0.940753,-0.423656,0.122066,-0.034368,-0.075671,0.319796,-0.003137575,-0.000428537,0.038937291,-0.266568558,-0.191810043,0.036425987
3198957.125,0.942709,-0.413389,0.122066,-0.027338,-0.089114,0.3774,-0.007053259,0.008953971,0.036513825,-0.315321904,-0.220634244,0.054882223
3199018,1.194977,-0.417789,0.126953,-0.073992,-0.181378,0.444707,-0.020418014,0.095294774,0.268517542,-0.340755106,-0.342089113,0.054754974
3199028,1.169554,-0.387476,0.139414,-0.085495,-0.199708,0.468962,-0.038150607,0.09331926,0.23582625,-0.355448193,-0.371620694,0.051697971
3199038,1.135821,-0.350317,0.147476,-0.095081,-0.211928,0.523535,-0.053123781,0.098374546,0.192501919,-0.400499307,-0.406113918,0.05210144
3199048,1.11211,-0.320003,0.160181,-0.104029,-0.224149,0.602362,-0.07019833,0.102642206,0.161630448,-0.467911108,-0.449173919,0.056628365
3199058,1.102332,-0.306313,0.170932,-0.112976,-0.232703,0.700594,-0.080020712,0.100711805,0.149623877,-0.554528892,-0.496296242,0.062721315
3199068,1.106487,-0.309735,0.176307,-0.122562,-0.243701,0.791549,-0.079430245,0.092343907,0.156069569,-0.633281611,-0.543333236,0.068591805
3199078,1.122376,-0.313402,0.177284,-0.116171,-0.249811,0.885535,-0.075328398,0.09111931,0.172775008,-0.716985537,-0.581515729,0.088570145
3199088,1.148532,-0.324159,0.183637,-0.118728,-0.262032,0.989224,-0.077801269,0.089489868,0.201609706,-0.807825576,-0.630964008,0.103070308
3199150,1.150243,-0.309491,0.20245,-0.066962,-0.291361,1.69564,-0.100123537,0.10144577,0.199797347,-1.446901599,-0.898546985,0.252307808
3199160,1.158065,-0.302646,0.200495,-0.061849,-0.295027,1.811456,-0.101863709,0.11648376,0.203728669,-1.5496027,-0.945709108,0.276775765
3199170,1.173954,-0.291645,0.198541,-0.05418,-0.298693,1.916964,-0.106658915,0.138492678,0.213295917,-1.642808854,-0.988529908,0.301482417
3199180,1.179821,-0.273065,0.197808,-0.059293,-0.297471,2.013983,-0.116374162,0.162881629,0.210618322,-1.729578389,-1.029651447,0.31065845
3199190,1.191554,-0.263776,0.195609,-0.058014,-0.301137,2.104937,-0.122441507,0.182568472,0.216272348,-1.80918197,-1.070370069,0.325541712
3199200,1.197177,-0.237618,0.192432,-0.07527,-0.305414,2.175882,-0.134901379,0.215020478,0.209253063,-1.869433671,-1.111608456,0.320858463
3199210,1.19131,-0.213905,0.191944,-0.092525,-0.312135,2.260167,-0.149556401,0.2396812,0.192477744,-1.941099396,-1.160141702,0.317093624
3199220,1.190088,-0.184813,0.180949,-0.118728,-0.317634,2.325048,-0.151015987,0.267453804,0.178503486,-1.997034351,-1.20026691,0.303395854
3199281,1.174688,-0.060136,0.167755,-0.408873,-0.364072,2.530607,-0.196059136,0.37834192,0.109084389,-2.152227966,-1.437126938,0.079235643
3199291,1.174199,-0.035689,0.183881,-0.44594,-0.372015,2.552436,-0.228402404,0.401780839,0.095551787,-2.166936804,-1.467707024,0.049072997
3199301,1.152688,-0.013443,0.195853,-0.475977,-0.376292,2.576084,-0.254441712,0.415827232,0.062815066,-2.185113805,-1.492999534,0.024261099
3199311,1.140465,0.015649,0.200495,-0.498345,-0.383013,2.570627,-0.276716354,0.441684349,0.034140487,-2.176299457,-1.505615056,0.00372098
3199321,1.136799,0.036917,0.200251,-0.530939,-0.390346,2.550617,-0.291561379,0.46637437,0.015510809,-2.153207133,-1.517527938,-0.026857053
3199331,1.14511,0.044496,0.207092,-0.557141,-0.390346,2.514235,-0.308323345,0.482439004,0.014067663,-2.118221092,-1.514637751,-0.056263797
3199341,1.141443,0.055497,0.214178,-0.570562,-0.397678,2.471789,-0.325278035,0.495735281,0.000142483,-2.076011946,-1.509496084,-0.070891633
3199351,1.127021,0.067231,0.221263,-0.589735,-0.398289,2.450566,-0.334867925,0.495781432,-0.017290531,-2.054418833,-1.510970063,-0.089598794
3199438,1.010665,0.222467,0.243985,-0.545638,-0.36896,2.34809,-0.408026137,0.564967323,-0.197011467,-1.975487061,-1.428028379,-0.074597452
3199448,0.985976,0.253514,0.242275,-0.536051,-0.37507,2.375983,-0.420489589,0.585948133,-0.241733235,-2.000116208,-1.438455797,-0.060856141
3199458,0.938798,0.303385,0.232258,-0.527104,-0.384846,2.424492,-0.429452516,0.613352007,-0.316847182,-2.042387301,-1.459724809,-0.044318407
3199468,0.891375,0.342988,0.220774,-0.521352,-0.39279,2.468151,-0.432678297,0.631893451,-0.388091939,-2.080496085,-1.479301494,-0.032624843
3199478,0.86962,0.382592,0.212956,-0.520074,-0.411731,2.507565,-0.441703463,0.660760457,-0.437630451,-2.110306547,-1.508002083,-0.020435479
3199488,0.903598,0.388948,0.212223,-0.529021,-0.43495,2.529394,-0.452244159,0.68902485,-0.422480762,-2.121207953,-1.538531192,-0.016652865
3199498,0.950042,0.373547,0.213689,-0.537969,-0.451447,2.525755,-0.459391001,0.706607973,-0.385634285,-2.110810304,-1.554606463,-0.01821992
3199508,0.979131,0.386748,0.22053,-0.533495,-0.463668,2.514235,-0.474346764,0.729490104,-0.367746611,-2.096495311,-1.557437933,-0.008778327
3199568,0.796042,0.533427,0.214911,-0.497067,-0.559597,2.566988,-0.499329166,0.75241138,-0.614044734,-2.116367471,-1.632479308,0.075178676
3199578,0.755708,0.558363,0.218087,-0.493232,-0.571207,2.593668,-0.509011384,0.752247166,-0.67525799,-2.136864846,-1.650220546,0.08514527
3199588,0.712441,0.578165,0.226638,-0.488759,-0.586482,2.640965,-0.520661858,0.743435572,-0.736510895,-2.175145056,-1.678179144,0.10000685
3199598,0.673085,0.597233,0.235923,-0.467669,-0.598703,2.699783,-0.532646027,0.734615007,-0.795013812,-2.227639544,-1.699166767,0.128227079
3199608,0.641796,0.596744,0.24423,-0.43891,-0.617644,2.782855,-0.538044458,0.715036783,-0.836035489,-2.30190999,-1.729557675,0.168073487
3199618,0.604641,0.606034,0.2369,-0.409512,-0.624365,2.848949,-0.53032851,0.703808526,-0.888668118,-2.364857866,-1.744024486,0.199669737
3199628,0.550129,0.622657,0.231036,-0.394813,-0.638419,2.899277,-0.521759482,0.685421238,-0.958938357,-2.408360263,-1.766215434,0.222591852
3199638,0.550618,0.635859,0.22053,-0.385227,-0.642696,2.919894,-0.516245466,0.698967711,-0.967364308,-2.428107796,-1.771148652,0.233589266
3199699,0.370706,0.654927,0.228593,-0.165381,-0.673247,2.836821,-0.494322364,0.597037363,-1.13341237,-2.383282846,-1.633936477,0.422350863
3199708.875,0.327928,0.667395,0.228837,-0.114893,-0.690355,2.833789,-0.490184387,0.573955123,-1.18871676,-2.382903002,-1.617633466,0.474537435
3199718.75,0.307395,0.673995,0.224684,-0.084856,-0.697687,2.794982,-0.48449722,0.56126596,-1.222456315,-2.348328269,-1.593207061,0.502929094
3199728.625,0.333795,0.68573,0.21882,-0.057375,-0.696465,2.726463,-0.489955038,0.582212048,-1.224722316,-2.288642658,-1.552611838,0.522940858
3199738.5,0.326217,0.68304,0.224684,-0.027977,-0.679357,2.620955,-0.493659786,0.567125534,-1.241065795,-2.200583452,-1.485228795,0.532204524
3199748.375,0.291262,0.686218,0.22786,-0.004331,-0.667748,2.526362,-0.489190328,0.538377146,-1.280163786,-2.119922092,-1.428703675,0.541430734
3199758.25,0.248728,0.699664,0.224439,0.023789,-0.652472,2.442077,-0.478852298,0.512691392,-1.331083386,-2.051585557,-1.370217281,0.55093285
3199768.125,0.199594,0.712621,0.21882,0.039127,-0.646973,2.372951,-0.463958556,0.490007979,-1.374410584,-1.994129212,-1.328751974,0.55575922
3199828,0.13995,0.746602,0.178017,0.005894,-0.522325,1.771436,-0.419618665,0.482394629,-1.447108711,-1.469110796,-1.034012281,0.428223912
3199838,0.134572,0.737312,0.183392,-0.031173,-0.472222,1.577399,-0.41952057,0.466322213,-1.449352111,-1.294856736,-0.950810331,0.362572375
3199848,0.055127,0.750269,0.181682,-0.073992,-0.414786,1.441573,-0.397447399,0.416127353,-1.517517631,-1.174448751,-0.890333258,0.289191593
3199858,0.001594,0.753691,0.184614,-0.110419,-0.377514,1.377905,-0.383495741,0.375579803,-1.560362223,-1.116018309,-0.867055571,0.236746985
3199868,-0.03434,0.753202,0.183148,-0.147487,-0.336576,1.33364,-0.368898421,0.346150322,-1.588327789,-1.076122023,-0.85003405,0.181755259
3199878,-0.10474,0.751002,0.179972,-0.177524,-0.300526,1.308172,-0.341025101,0.29173937,-1.637145519,-1.054054213,-0.838886054,0.13558957
3199888,-0.176118,0.741712,0.185591,-0.218425,-0.274252,1.31363,-0.318091273,0.228007011,-1.680021327,-1.053868601,-0.854225338,0.09059504
3199898,-0.222563,0.733889,0.190234,-0.240793,-0.257144,1.308779,-0.305843428,0.188864442,-1.703637938,-1.047239617,-0.858089869,0.06306932
3199959,-0.344297,0.673751,0.189745,-0.231846,9.50E-05,0.458653,-0.251043706,0.067832072,-1.735431755,-0.346765775,-0.352092166,-0.141066492
3199969,-0.374119,0.69233,0.187546,-0.211395,0.037978,0.291296,-0.245345746,0.058472039,-1.768664974,-0.21140668,-0.246706498,-0.159457372
3199979,-0.384875,0.702598,0.188523,-0.190305,0.075861,0.150013,-0.247011799,0.057800707,-1.78291627,-0.099919256,-0.151691675,-0.177427626
3199989,-0.381697,0.713354,0.183881,-0.17305,0.111911,-0.037354,-0.248848886,0.071031842,-1.788294019,0.055400024,-0.041810284,-0.197606764
3199999,-0.388297,0.737556,0.178017,-0.151321,0.154071,-0.23988,-0.251272282,0.087338612,-1.809745437,0.221709823,0.080677758,-0.220259361
3200009,-0.386097,0.753447,0.180949,-0.144291,0.194398,-0.444226,-0.262952435,0.102748887,-1.818409738,0.394675562,0.19215589,-0.251504531
3200019,-0.388542,0.76347,0.183392,-0.124479,0.231059,-0.602487,-0.27230048,0.113068255,-1.824955739,0.522755352,0.291733062,-0.271095058
3200029,-0.393675,0.769581,0.194387,-0.093803,0.271998,-0.787429,-0.28263949,0.108768346,-1.832649742,0.672086799,0.41126803,-0.286328984
3200090,-0.279519,0.720688,0.238855,0.240439,0.548789,-1.291925,-0.351986362,0.150607353,-1.712738944,0.960645722,1.010941538,-0.288457082
3200100,-0.247985,0.71531,0.246429,0.291566,0.586672,-1.385306,-0.376069604,0.175603815,-1.679431499,1.020077134,1.106866522,-0.287326686
3200110,-0.226474,0.714088,0.250582,0.340776,0.618445,-1.46474,-0.395482748,0.197226547,-1.654750768,1.069231144,1.19198103,-0.282828135
3200120,-0.214985,0.706754,0.269151,0.398294,0.651439,-1.50476,-0.423839028,0.201666332,-1.630756052,1.079710947,1.267842747,-0.272236257
3200130,-0.19763,0.65346,0.291141,0.486488,0.68199,-1.487175,-0.441183598,0.178055454,-1.569634935,1.031500834,1.339742487,-0.233594764
3200140,-0.181007,0.646371,0.283322,0.573403,0.713763,-1.430177,-0.445642147,0.194469141,-1.542600396,0.947884211,1.396040544,-0.1903712
3200150,-0.11354,0.659327,0.279902,0.660958,0.729039,-1.41623,-0.470623578,0.25494715,-1.489350542,0.910961364,1.458049661,-0.13531937
3200160,-0.01014,0.642704,0.278436,0.710807,0.751035,-1.459889,-0.482716266,0.310643061,-1.401476964,0.933691257,1.52153213,-0.11720354
3200220,0.379017,0.748068,0.270128,0.773438,0.818247,-2.228155,-0.588389932,0.637941523,-1.151844183,1.600494831,1.90650076,-0.189948265
3200230,0.385617,0.779604,0.265975,0.705694,0.796251,-2.290004,-0.59915316,0.670749395,-1.135411622,1.676415725,1.874431195,-0.228639475
3200240,0.433773,0.814074,0.261333,0.605997,0.758979,-2.400969,-0.614019256,0.731533222,-1.083725314,1.808597176,1.831186069,-0.289253282
3200250,0.563574,0.836076,0.259378,0.348445,0.713763,-2.569539,-0.632605701,0.825503142,-0.952352664,2.007767091,1.720445903,-0.49227981
3200260,0.504663,0.890103,0.262554,0.400211,0.691767,-2.699908,-0.647273262,0.834771573,-0.990179509,2.128366385,1.786069263,-0.456318696
3200270,0.444284,0.894014,0.292851,0.30307,0.680768,-2.667164,-0.667498977,0.79803266,-1.000038802,2.10840531,1.716122166,-0.527837153
3200280,0.44404,0.860034,0.308732,0.229575,0.669159,-2.561656,-0.662118624,0.768605485,-0.945319227,2.01899745,1.632100349,-0.567853554
3200290,0.436707,0.89377,0.29847,0.166944,0.658772,-2.416734,-0.667048156,0.795423526,-0.96884988,1.894697113,1.537109608,-0.591498923
3200350,0.547196,0.800384,0.324369,-0.248462,0.725984,-1.703648,-0.644161966,0.767989375,-0.79875155,1.230051975,1.116039958,-0.855937844
3200360,0.58533,0.783516,0.324858,-0.265718,0.777309,-1.504154,-0.626668142,0.773111496,-0.732367965,1.021858958,1.078577003,-0.854266065
3200370,0.641308,0.77496,0.321437,-0.272108,0.829857,-1.334371,-0.606669873,0.792480732,-0.65491066,0.840036383,1.060712471,-0.844084888
3200380,0.69313,0.788161,0.312397,-0.299589,0.876294,-1.227044,-0.588273725,0.827934151,-0.590515065,0.716535961,1.054420062,-0.859102015
3200390,0.70413,0.798184,0.310442,-0.332183,0.906845,-1.18278,-0.574586755,0.839721289,-0.559557941,0.655795912,1.058497135,-0.883853757
3200400,0.71073,0.793539,0.302135,-0.365415,0.954504,-1.191269,-0.547835307,0.839013235,-0.528767464,0.634098547,1.097958698,-0.925274862
3200410,0.70853,0.764692,0.298715,-0.384588,1.007052,-1.220374,-0.51516264,0.811558815,-0.498024889,0.62872962,1.156136493,-0.958864868
3200420,0.718797,0.708465,0.30238,-0.372445,1.062043,-1.222193,-0.493516242,0.765926618,-0.471016462,0.608395149,1.208393123,-0.96438983
3200480,0.729552,0.621191,0.248628,-0.273387,1.13231,-1.116686,-0.389929875,0.707819047,-0.428259542,0.488727915,1.278855416,-0.854124031
3200490,0.771353,0.619968,0.238366,-0.261244,1.119479,-1.142759,-0.356855151,0.716742325,-0.37143102,0.513550261,1.292680062,-0.832240457
3200500,0.798975,0.618257,0.230547,-0.238876,1.099315,-1.157312,-0.326573052,0.717517402,-0.327487169,0.53315496,1.298571182,-0.796482863
3200510,0.793353,0.61239,0.230303,-0.217786,1.085873,-1.14094,-0.307044793,0.700121667,-0.312233243,0.523181902,1.298247209,-0.754406972
3200520,0.802642,0.6053,0.215644,-0.201809,1.06021,-1.104558,-0.271821906,0.690011508,-0.287875309,0.500782556,1.277893607,-0.707831373
3200530,0.835642,0.628525,0.199762,-0.194779,1.027215,-1.095463,-0.242405793,0.712287877,-0.246918665,0.504761713,1.257413274,-0.676221983
3200540,0.828553,0.633169,0.194876,-0.205004,0.975279,-1.133664,-0.2239463,0.701713942,-0.236570036,0.555193592,1.232001907,-0.672548295
3200550,0.843953,0.638303,0.170443,-0.22929,0.918454,-1.233714,-0.200703779,0.718544756,-0.230487409,0.66035034,1.209704366,-0.720232367
3200610,0.757908,0.588188,0.12793,-0.323874,0.534124,-1.284649,-0.151213561,0.652263137,-0.301113025,0.835046629,0.868820616,-0.767042198
3200620,0.795308,0.576698,0.125731,-0.328987,0.465079,-1.270703,-0.122870986,0.632896904,-0.24817029,0.847934116,0.812090944,-0.74882112
3200630,0.849086,0.569853,0.103009,-0.345603,0.376482,-1.313148,-0.073902637,0.624393341,-0.187004497,0.915264607,0.755024847,-0.760109189
3200640,0.879153,0.549073,0.089571,-0.374362,0.293383,-1.38288,-0.034129249,0.592545171,-0.145517973,1.000296577,0.71136096,-0.794952784
3200650,0.85422,0.524627,0.092014,-0.3897,0.224338,-1.439879,-0.023264321,0.543540979,-0.152997138,1.071516055,0.678632687,-0.816551396
3200660,0.825375,0.490646,0.105941,-0.394174,0.184622,-1.441091,-0.021568026,0.482095603,-0.163149037,1.084986915,0.655044212,-0.812355938
3200670,0.815842,0.453976,0.127197,-0.358385,0.145517,-1.408954,-0.022019652,0.417901078,-0.155757571,1.081643475,0.622136451,-0.760105262
3200680,0.849575,0.423418,0.119867,-0.324514,0.119854,-1.34953,0.005686512,0.393683272,-0.127985249,1.048731038,0.578609839,-0.711533135
3200741,1.026554,0.370124,0.053166,-0.27786,-0.091558,-1.696372,0.140963525,0.347479311,0.026167105,1.448020123,0.518224083,-0.773271318
3200750.875,1.026309,0.354234,0.069536,-0.263161,-0.09278,-1.694553,0.134659894,0.297602071,0.037750869,1.45472451,0.526890301,-0.74534215
3200760.75,1.02362,0.361323,0.087861,-0.238876,-0.084837,-1.663021,0.118066758,0.268345426,0.048867362,1.434314844,0.532494538,-0.699348556
3200770.625,0.99942,0.375991,0.10081,-0.213312,-0.078116,-1.614512,0.097936373,0.249070085,0.038626393,1.398652948,0.529728217,-0.649161817
3200780.5,0.949065,0.387726,0.119623,-0.189027,-0.070783,-1.564184,0.065362344,0.228553714,0.004418464,1.360446122,0.525539955,-0.60033918
3200790.375,0.91362,0.377947,0.12964,-0.161546,-0.065895,-1.525376,0.051422007,0.192614745,-0.022959926,1.33444528,0.521352195,-0.551959135
3200800.25,0.898709,0.366457,0.132328,-0.135344,-0.06284,-1.494452,0.048437991,0.15852724,-0.034597403,1.316654875,0.516251997,-0.505526912
3200810.125,0.920953,0.347878,0.121578,-0.104668,-0.059785,-1.4514,0.070876309,0.142286717,-0.020874993,1.286734894,0.498690278,-0.465524344
3200871,0.954687,0.186286,0.119134,0.087697,-0.018847,-1.214917,0.126238856,-0.019671281,-0.028403662,1.124801206,0.421025293,-0.204032448
3200881,1.009198,0.180419,0.106185,0.124125,-0.015792,-1.207034,0.147893347,-0.037667831,0.01932113,1.129862968,0.414978832,-0.154239169
3200891,1.091821,0.166973,0.087861,0.144576,-0.00846,-1.245842,0.18441339,-0.065870633,0.090561963,1.170352018,0.432206454,-0.128723794
3200901,1.150243,0.157928,0.076133,0.150967,-0.002349,-1.319212,0.205818969,-0.089193797,0.141700252,1.238247334,0.463331338,-0.123225263
3200911,1.148777,0.154261,0.074178,0.15608,-0.001738,-1.375604,0.199661615,-0.100898405,0.139711445,1.292111314,0.483362963,-0.11601272
3200921,1.091332,0.16624,0.083951,0.16311,0.004983,-1.407741,0.163065321,-0.090120907,0.091318911,1.322341113,0.499628378,-0.100746668
3200931,1.020931,0.167218,0.097634,0.177809,0.008038,-1.378029,0.124496762,-0.08447432,0.028182382,1.299082955,0.487954754,-0.070201203
3200941,0.967887,0.160128,0.114248,0.191229,0.014148,-1.342254,0.097764539,-0.086748011,-0.021012919,1.26805318,0.47749,-0.049587588
3201001,1.133621,0.05843,0.062939,0.1139,-0.057341,-1.513855,0.213110787,-0.196871635,0.099225776,1.429002794,0.489751217,-0.161594928
3201011,1.114799,0.048407,0.070025,0.089615,-0.067728,-1.535685,0.198498049,-0.20832864,0.080380142,1.448160387,0.490734228,-0.181542727
3201021,1.090354,0.028116,0.074667,0.06469,-0.076894,-1.528408,0.188589994,-0.225925361,0.052914555,1.440317154,0.482096863,-0.19798386
3201031,1.046843,0.03814,0.084196,0.053187,-0.083004,-1.49809,0.160818087,-0.212705731,0.016522359,1.413661513,0.464785692,-0.198815381
3201041,1.01262,0.024205,0.089082,0.033375,-0.084837,-1.466559,0.147930744,-0.220675964,-0.018501471,1.38247606,0.452621026,-0.207366002
3201051,1.010909,0.014182,0.093724,0.022511,-0.08667,-1.448974,0.141994228,-0.231676312,-0.021692252,1.366267512,0.443535955,-0.210078626
3201061,1.05882,-0.000975,0.095679,-0.000497,-0.091558,-1.464133,0.15081464,-0.257680611,0.020348402,1.378691539,0.445976365,-0.228873933
3201071,1.11431,-0.01491,0.07711,-0.024782,-0.098279,-1.515068,0.184831728,-0.275276955,0.066730925,1.422295128,0.463372124,-0.260896142
3201131,1.019709,-0.098272,0.113515,-0.14493,-0.066506,-1.446549,0.153056016,-0.34353143,-0.040359704,1.324477316,0.487482435,-0.355038698
3201141,1.05222,-0.115141,0.107651,-0.149404,-0.060396,-1.423507,0.167404811,-0.362891648,-0.013948076,1.302851096,0.48055403,-0.352119662
3201151,1.101354,-0.135187,0.10081,-0.157073,-0.06284,-1.417443,0.187027825,-0.388343803,0.027437831,1.298862415,0.472497955,-0.357025996
3201161,1.117487,-0.153522,0.098611,-0.169215,-0.058563,-1.421688,0.19464524,-0.406715412,0.03863667,1.301342623,0.474996044,-0.366259806
3201171,1.118465,-0.170879,0.104475,-0.175606,-0.057341,-1.401678,0.191521772,-0.423415858,0.036878506,1.283295257,0.465107896,-0.368313184
3201181,1.108199,-0.181391,0.114492,-0.17305,-0.05062,-1.372572,0.180446447,-0.432209448,0.027010326,1.256773548,0.455425616,-0.359958801
3201191,1.077643,-0.192147,0.120356,-0.171133,-0.029234,-1.314361,0.169856564,-0.43491723,-0.002645388,1.198201176,0.449964375,-0.345733962
3201201,1.038532,-0.196303,0.135993,-0.150682,-0.005404,-1.250692,0.148326465,-0.436101052,-0.039066698,1.136086556,0.44632647,-0.31155219
3201263,1.080821,-0.269643,0.127197,0.002699,0.08747,-0.943871,0.185067989,-0.502995024,-0.015212559,0.855190095,0.396163783,-0.10126652
3201273,1.066398,-0.276244,0.127197,0.017398,0.08136,-0.909308,0.182107943,-0.499763181,-0.02697997,0.828181303,0.374968665,-0.08530773
3201283,1.039265,-0.276488,0.128419,0.032736,0.078916,-0.865044,0.173583567,-0.48829695,-0.048977588,0.791027963,0.354193272,-0.066501055
3201293,1.02802,-0.274288,0.133305,0.04424,0.076472,-0.800163,0.163928273,-0.478421775,-0.054447581,0.733735125,0.327665923,-0.048309215
3201303,1.03022,-0.262065,0.132328,0.052548,0.066696,-0.744377,0.15918465,-0.459529896,-0.045518709,0.686340453,0.298282485,-0.035652613
3201313,1.052465,-0.258886,0.12964,0.067886,0.054475,-0.72376,0.161724364,-0.451779812,-0.01956576,0.673914374,0.277158985,-0.020661214
3201323,1.101354,-0.249597,0.115469,0.056382,0.033701,-0.726186,0.177280718,-0.438771684,0.031825248,0.68038447,0.259739092,-0.035684325
3201333,1.12531,-0.235173,0.101543,0.03721,0.00315,-0.751653,0.190645613,-0.424432792,0.056149124,0.709570592,0.2424769,-0.063963015
3201393,1.176643,-0.153033,0.131351,-0.205004,-0.221705,-0.67707,0.140320334,-0.356762374,0.130571425,0.66189409,0.040143835,-0.331493919
3201403,1.217955,-0.160122,0.132572,-0.24974,-0.249811,-0.677677,0.140346692,-0.361299117,0.173198417,0.66473847,0.014738127,-0.376732364
3201413,1.270266,-0.157433,0.134038,-0.293198,-0.27303,-0.712239,0.13914481,-0.357492478,0.228480727,0.698550359,0.003344582,-0.424041332
3201423,1.291288,-0.164278,0.147476,-0.323235,-0.288917,-0.721335,0.123814457,-0.361352432,0.253098372,0.708805504,-0.011921736,-0.453575473
3201433,1.295933,-0.167701,0.152852,-0.349438,-0.290139,-0.709814,0.112681735,-0.356469146,0.261412809,0.696066282,-0.020913336,-0.474529065
3201443,1.290311,-0.170879,0.160914,-0.37564,-0.283417,-0.667975,0.09769317,-0.349634215,0.260241003,0.65236986,-0.032043732,-0.490925627
3201453,1.282977,-0.162322,0.169221,-0.39673,-0.273641,-0.581871,0.079606417,-0.329788999,0.259331646,0.566435904,-0.054081138,-0.497064933
3201463,1.263177,-0.163056,0.177773,-0.416542,-0.2547,-0.45514,0.068648442,-0.330998251,0.240779667,0.43783894,-0.070563358,-0.498848296
3201525,1.226999,-0.248374,0.205382,-0.336656,-0.046343,0.686647,0.05352663,-0.387195917,0.206901892,-0.690649168,-0.213510951,-0.25374365
3201535,1.219421,-0.249841,0.203183,-0.312371,-0.010904,0.939502,0.04801019,-0.354859144,0.20932272,-0.93651255,-0.256939419,-0.193093051
3201545,1.215755,-0.241774,0.197075,-0.290642,0.022091,1.186293,0.043447749,-0.309534116,0.215588075,-1.176760746,-0.298045201,-0.136583566
3201555,1.201821,-0.226128,0.181926,-0.272748,0.056308,1.425201,0.043465096,-0.251665364,0.209702438,-1.410888442,-0.33287531,-0.085719226
3201565,1.195954,-0.228573,0.177284,-0.271469,0.073417,1.662897,0.038534571,-0.212245881,0.211382671,-1.641838852,-0.38190081,-0.053187046
3201575,1.223332,-0.235173,0.171176,-0.257409,0.09358,1.840562,0.038141853,-0.17194987,0.245041038,-1.815119523,-0.409492636,-0.018492803
3201585,1.236532,-0.23444,0.157982,-0.264439,0.098469,2.026716,0.038969667,-0.120560638,0.26209283,-1.995225025,-0.454146671,-0.005456547
3201595,1.244355,-0.221239,0.15163,-0.273387,0.106412,2.201956,0.042329966,-0.105352995,0.267859077,-2.166153382,-0.492333046,0.007866853
3201656,1.293977,-0.129564,0.132084,-0.382031,0.037978,2.734345,0.017278925,0.026539935,0.306754208,-2.668596299,-0.706743241,-0.056039069
3201666,1.297644,-0.118319,0.135749,-0.398009,0.014759,2.73859,0.001329134,0.051327976,0.309072496,-2.667907297,-0.730953333,-0.080511236
3201676,1.287866,-0.094361,0.139902,-0.413347,-0.003571,2.737377,-0.013833384,0.086180331,0.295938652,-2.663514299,-0.749017864,-0.093622392
3201686,1.277844,-0.07407,0.150164,-0.41782,-0.030456,2.727069,-0.033638114,0.115665763,0.283125399,-2.64729634,-0.771488242,-0.095049631
3201696,1.270021,-0.057691,0.152119,-0.415903,-0.051842,2.713729,-0.043628309,0.143866526,0.271542675,-2.629178563,-0.787010791,-0.08956608
3201706,1.258288,-0.033978,0.158715,-0.413347,-0.071394,2.707059,-0.059933979,0.176807935,0.254902593,-2.617910461,-0.802447512,-0.082122372
3201716,1.243621,-0.008064,0.165068,-0.405678,-0.090947,2.681592,-0.077431728,0.210123229,0.234406019,-2.588157045,-0.812285213,-0.073603606
3201726,1.247532,0.008559,0.159693,-0.401843,-0.103167,2.647635,-0.076276486,0.227988146,0.234550325,-2.552025516,-0.814953154,-0.071480369
3201787,1.103799,0.098523,0.183148,-0.304063,-0.241868,2.585786,-0.134557347,0.289562953,0.076879668,-2.449959579,-0.912630242,0.045252395
3201797,1.08571,0.11808,0.182415,-0.286168,-0.263865,2.602158,-0.14377769,0.315480778,0.051562731,-2.458265517,-0.935235043,0.070775574
3201807,1.089865,0.132992,0.183392,-0.258688,-0.292583,2.610647,-0.152574446,0.341077306,0.048576428,-2.456608526,-0.960182315,0.105482337
3201817,1.104532,0.149616,0.184125,-0.236959,-0.31519,2.600338,-0.161339379,0.370908319,0.054833885,-2.43854757,-0.976454091,0.13143507
3201827,1.082287,0.162084,0.188768,-0.209478,-0.348185,2.5967,-0.174688883,0.386919284,0.026171035,-2.423818332,-1.00256259,0.16714564
3201837,1.050998,0.173329,0.196097,-0.189027,-0.367127,2.617923,-0.190862722,0.398617871,-0.011177981,-2.436755749,-1.023602194,0.196199498
3201847,1.024354,0.193864,0.202694,-0.155795,-0.390346,2.667645,-0.209015692,0.420024448,-0.047182531,-2.475202701,-1.052599787,0.241613755
3201857,0.984998,0.229556,0.202694,-0.114254,-0.420896,2.733133,-0.219828592,0.442044392,-0.094310197,-2.528803159,-1.085095647,0.296555955
3201918,0.873042,0.346655,0.198785,0.03018,-0.576095,3.07391,-0.258729119,0.530501707,-0.242692479,-2.807959344,-1.277914671,0.513826223
3201927.875,0.850064,0.375258,0.202206,0.046157,-0.59137,3.10241,-0.278341554,0.558915577,-0.282745517,-2.827304993,-1.301774139,0.537147394
3201937.75,0.828797,0.396526,0.199029,0.070442,-0.60909,3.111505,-0.289495079,0.581466576,-0.320412552,-2.82720302,-1.320175399,0.566988595
3201947.625,0.822442,0.426107,0.195853,0.083863,-0.60909,3.092101,-0.302749682,0.615181626,-0.347136604,-2.804823253,-1.318553381,0.577490888
3201957.5,0.821708,0.447864,0.192188,0.09281,-0.620699,3.04056,-0.313412435,0.642922889,-0.36663973,-2.748461027,-1.320360389,0.584377009
3201967.375,0.809975,0.456665,0.189989,0.100479,-0.626198,2.981743,-0.32175631,0.654065321,-0.392242091,-2.686800896,-1.314700447,0.58794129
3201977.25,0.801664,0.462777,0.200007,0.10687,-0.640252,2.939297,-0.34100093,0.659983076,-0.412657488,-2.638322928,-1.321271764,0.595234179
3201987.125,0.779664,0.485268,0.199518,0.124764,-0.64514,2.892607,-0.346423854,0.671639238,-0.441376993,-2.592577908,-1.306150124,0.609474017
3202046,0.565285,0.573764,0.206359,0.156719,-0.669581,2.679772,-0.379612934,0.668266412,-0.682745657,-2.378611987,-1.264883882,0.629564385
3202056,0.559418,0.589166,0.207336,0.149689,-0.678746,2.628231,-0.390860873,0.680684447,-0.705127565,-2.323008072,-1.267544028,0.622628903
3202066,0.535707,0.615323,0.215399,0.123486,-0.679968,2.588211,-0.411072008,0.692477501,-0.748016216,-2.279873005,-1.2739813,0.596315506
3202076,0.488285,0.641726,0.217354,0.116456,-0.688522,2.552436,-0.423687312,0.69518312,-0.813756198,-2.239794018,-1.279199122,0.591207615
3202086,0.429129,0.65786,0.222485,0.08578,-0.697687,2.542127,-0.434565073,0.681537533,-0.885584781,-2.222628485,-1.301946079,0.566916277
3202096,0.396129,0.663972,0.217842,0.055104,-0.708075,2.518479,-0.433790676,0.672441588,-0.930142291,-2.192477585,-1.321493627,0.542069889
3202106,0.35824,0.680596,0.215155,0.012285,-0.720295,2.485129,-0.436662538,0.668494379,-0.983279362,-2.15157765,-1.344997498,0.506495117
3202116,0.346506,0.678151,0.209291,-0.029895,-0.730071,2.436013,-0.429370595,0.662833763,-0.99291452,-2.098401206,-1.35772641,0.470476446
3202176,0.209861,0.749046,0.237389,-0.176885,-0.69952,2.266837,-0.466249909,0.647893524,-1.155916934,-1.932832574,-1.350549388,0.315184249
3202186,0.195928,0.755158,0.234701,-0.200531,-0.683634,2.211658,-0.464430257,0.644148905,-1.181968871,-1.881754738,-1.333323271,0.283279715
3202196,0.183461,0.762736,0.236411,-0.224816,-0.665303,2.134649,-0.466846688,0.640823256,-1.206673726,-1.810613132,-1.307559564,0.24872624
3202206,0.158039,0.760781,0.235434,-0.247184,-0.633531,2.04612,-0.461920952,0.623992703,-1.237603377,-1.732725369,-1.266125301,0.208945037
3202216,0.12895,0.753447,0.239832,-0.27786,-0.609701,1.983058,-0.45950995,0.599017925,-1.268063434,-1.675727301,-1.243067926,0.167870968
3202226,0.088127,0.754913,0.241298,-0.297033,-0.572429,1.921209,-0.454748574,0.575558176,-1.31276389,-1.624980128,-1.203910389,0.130333968
3202236,0.042905,0.768603,0.246917,-0.308536,-0.538212,1.886646,-0.456095758,0.557475386,-1.367092997,-1.600093781,-1.171990554,0.102165457
3202246,0.005016,0.773737,0.252781,-0.316205,-0.516826,1.855721,-0.457987455,0.539997737,-1.40154984,-1.575670942,-1.149419004,0.083019173
3202307,-0.177341,0.79525,0.223706,-0.439549,-0.376292,1.473104,-0.407709117,0.467105819,-1.574022819,-1.235521229,-0.982872645,-0.110828891
3202316.875,-0.214985,0.789872,0.222485,-0.458083,-0.360406,1.436722,-0.395517343,0.439160746,-1.608539047,-1.203433152,-0.968098626,-0.135780428
3202326.75,-0.25923,0.786694,0.217598,-0.468308,-0.340242,1.403372,-0.379160724,0.409933922,-1.649328775,-1.176376343,-0.946776638,-0.155828976
3202336.625,-0.291986,0.778627,0.211734,-0.46703,-0.318856,1.377298,-0.362086857,0.383129163,-1.677091034,-1.158073426,-0.920695785,-0.167096266
3202346.5,-0.306163,0.771782,0.207825,-0.463195,-0.308469,1.314236,-0.350024028,0.366862122,-1.689543205,-1.101924563,-0.890741293,-0.17105906
3202356.375,-0.321563,0.76347,0.201961,-0.456165,-0.291361,1.248142,-0.335639292,0.349676071,-1.701534291,-1.045041519,-0.852977138,-0.176506138
3202366.25,-0.346497,0.751491,0.194876,-0.451692,-0.277918,1.147485,-0.318049953,0.32516885,-1.718251346,-0.953776348,-0.809312199,-0.182511218
3202376.125,-0.361653,0.738045,0.191211,-0.429963,-0.246756,1.013478,-0.308757916,0.307338682,-1.722686961,-0.837084028,-0.73332007,-0.185543437
3202438,-0.476053,0.700398,0.157494,-0.212673,0.004372,0.222171,-0.249790253,0.225714621,-1.792871942,-0.17966167,-0.182002375,-0.17089673
3202447.875,-0.448431,0.691597,0.156272,-0.158351,0.056919,0.018432,-0.252751068,0.238270711,-1.763650231,-0.007299617,-0.050107395,-0.161525586
3202457.75,-0.424475,0.675462,0.158471,-0.116171,0.102135,-0.195616,-0.257462944,0.242921178,-1.732286235,0.178832125,0.071960899,-0.158220033
3202467.625,-0.413475,0.658349,0.165068,-0.056736,0.165069,-0.377525,-0.265183253,0.239300145,-1.709961766,0.327349912,0.207746145,-0.150583692
3202477.5,-0.395875,0.646859,0.171909,0.009729,0.240225,-0.586722,-0.276506949,0.244386169,-1.684481989,0.498013158,0.364692828,-0.145008431
3202487.375,-0.379986,0.634636,0.181682,0.093449,0.311103,-0.781365,-0.291002034,0.247525208,-1.658945862,0.653833366,0.522993808,-0.122590624
3202497.25,-0.354808,0.617768,0.196342,0.165666,0.391146,-0.935382,-0.310654559,0.250553699,-1.621926675,0.770067213,0.670484888,-0.11325372
3202507.125,-0.333541,0.62388,0.198052,0.264724,0.451026,-1.054836,-0.316458169,0.266136819,-1.607228021,0.856471983,0.805038449,-0.067461639
3202568,-0.149474,0.671062,0.220041,0.594493,0.670381,-2.023203,-0.381133241,0.40437807,-1.460760843,1.684166886,1.434370523,0.048436502
3202578,-0.114763,0.705042,0.22053,0.627087,0.653273,-2.065042,-0.403462807,0.459237075,-1.430357202,1.725401687,1.449246897,0.08411081
3202588,-0.062451,0.734867,0.212712,0.646259,0.617223,-2.123253,-0.417147221,0.520753256,-1.379447324,1.789952037,1.445396167,0.117131781
3202598,-0.016984,0.756136,0.20074,0.63156,0.559176,-2.195411,-0.422380329,0.571827973,-1.327008075,1.877575551,1.410492278,0.128828858
3202608,0.040216,0.775449,0.185836,0.609192,0.496241,-2.311833,-0.42283483,0.625428804,-1.259851908,2.010024239,1.380215163,0.129423739
3202618,0.080794,0.792317,0.167755,0.54081,0.445527,-2.416734,-0.416802246,0.668701105,-1.203839053,2.129152196,1.338584268,0.08047405
3202628,0.108172,0.79085,0.172398,0.47754,0.380148,-2.514966,-0.424268241,0.681723833,-1.148711296,2.245384813,1.286267465,0.037067303
3202638,0.131394,0.800384,0.189012,0.425135,0.330655,-2.575602,-0.44327268,0.693269074,-1.128420358,2.319343382,1.242755509,-0.001783762
3202698,0.391973,0.796228,0.251804,0.251304,0.180345,-2.639877,-0.499582798,0.759252619,-0.841950629,2.430436444,1.068618876,-0.125143859
3202708,0.383662,0.80234,0.253759,0.229575,0.194398,-2.710822,-0.49915693,0.756693145,-0.81670385,2.491692555,1.096995136,-0.164684737
3202718,0.347973,0.794761,0.266952,0.206568,0.228615,-2.720524,-0.505415432,0.730557244,-0.813358687,2.487123741,1.126135274,-0.205477085
3202728,0.333306,0.750024,0.305556,0.222545,0.27322,-2.697482,-0.522086821,0.66787468,-0.7800861,2.449170732,1.166098481,-0.205819447
3202738,0.404195,0.746846,0.325835,0.252582,0.314769,-2.635633,-0.52836436,0.665324456,-0.675199348,2.377333948,1.193385499,-0.183174376
3202748,0.479729,0.777893,0.320948,0.270476,0.361817,-2.610772,-0.518780143,0.697798969,-0.573140757,2.337969579,1.234180631,-0.175771617
3202758,0.49024,0.780827,0.319971,0.278784,0.414976,-2.596219,-0.507172313,0.688561905,-0.529823172,2.305477441,1.282001105,-0.177554588
3202768,0.461885,0.780338,0.314352,0.283897,0.477299,-2.587123,-0.505282189,0.686235187,-0.558577861,2.276084605,1.337921356,-0.176132257
3202828,0.802397,0.648326,0.3058,0.277506,0.796862,-2.576815,-0.38798603,0.583251991,-0.183320661,2.154555921,1.633633439,-0.202743039
3202838,0.803375,0.671306,0.297493,0.244913,0.820691,-2.792075,-0.365511564,0.580241824,-0.15484561,2.339827555,1.726467409,-0.271507271
3202848,0.801419,0.685241,0.294561,0.181004,0.856741,-2.706578,-0.343976761,0.566412144,-0.128535087,2.235470579,1.730453144,-0.317072965
3202858,0.65573,0.667395,0.291385,0.147772,0.89768,-2.713248,-0.342656991,0.524051792,-0.246170416,2.217950912,1.774025579,-0.350581876
3202868,0.561618,0.600411,0.304334,0.14202,0.937396,-2.625325,-0.333883627,0.437956051,-0.317912358,2.119185668,1.784939908,-0.338014681
3202878,0.605863,0.523649,0.327057,0.145854,0.972835,-2.477978,-0.298070524,0.335348419,-0.260446126,1.970803225,1.770939752,-0.296248776
3202888,0.739575,0.511425,0.314596,0.168222,1.003997,-2.367619,-0.222350451,0.294405442,-0.121715839,1.864129615,1.763213123,-0.240891279
3202898,0.76353,0.485756,0.309465,0.188673,1.019272,-2.283334,-0.202424364,0.270160162,-0.105157331,1.789601366,1.745409306,-0.197485122
3202958,0.959087,0.387481,0.276725,0.310739,1.080985,-2.119009,-0.058601689,0.13923621,0.060068509,1.658836471,1.73302734,-0.012815607
3202968,1.002109,0.39017,0.274282,0.315851,1.074264,-2.11052,-0.021922942,0.101845981,0.10491288,1.655274716,1.722762624,0.015944344
3202978,1.006509,0.381125,0.253759,0.31713,1.056544,-2.117796,0.017660414,0.065715799,0.103666529,1.668263554,1.708014235,0.038738141
3202988,1.017998,0.386014,0.244963,0.306265,1.03027,-2.155997,0.043990047,0.036449164,0.114481916,1.706844812,1.69961118,0.039751849
3202998,0.961287,0.39946,0.230303,0.291566,0.989943,-2.177826,0.037114508,0.045699894,0.064525478,1.732842668,1.674574736,0.031300223
3203008,1.002843,0.346167,0.222729,0.282619,0.957559,-2.159029,0.078786699,-0.022905653,0.080926394,1.722785376,1.639850482,0.033164806
3203018,1.130687,0.335166,0.20416,0.261529,0.930675,-2.154784,0.150323099,-0.072862809,0.185143292,1.719700295,1.618565396,0.022900101
3203028,1.168821,0.365235,0.199518,0.228296,0.901957,-2.168731,0.16003517,-0.054173051,0.229146286,1.727775453,1.60729233,-0.021047419
3203088,1.034132,0.249114,0.181438,0.053826,0.644718,-1.815826,0.15881402,-0.12165037,0.060370605,1.429876911,1.281007609,-0.173937129
3203098,1.162954,0.227601,0.163113,0.025067,0.583006,-1.8134,0.229295666,-0.174240062,0.161005586,1.438309367,1.230482037,-0.214765062
3203108,1.209155,0.217822,0.153829,-0.012639,0.529847,-1.852814,0.25677505,-0.199679275,0.194721876,1.478445202,1.206073689,-0.270930523
3203118,1.171999,0.213422,0.150164,-0.06121,0.467523,-1.898291,0.246170258,-0.199089335,0.158207008,1.522772137,1.178721996,-0.342946955
3203128,1.098176,0.218311,0.163358,-0.089969,0.410699,-1.881313,0.204716052,-0.184133682,0.097507258,1.517570136,1.125481404,-0.382595326
3203138,1.056865,0.186775,0.172642,-0.105946,0.365483,-1.830379,0.188688087,-0.20747468,0.050240378,1.483691443,1.065296243,-0.398614198
3203148,1.039265,0.172596,0.168733,-0.124479,0.330044,-1.789146,0.188288289,-0.216024194,0.027722245,1.454419324,1.018101278,-0.416655362
3203158,1.046109,0.158661,0.178017,-0.128314,0.288495,-1.739424,0.186344013,-0.233800986,0.030446706,1.420058533,0.963594852,-0.424509627
3203219,1.106976,0.069676,0.178994,-0.203087,0.141851,-1.877675,0.230813686,-0.332617657,0.048036258,1.559623301,0.902792157,-0.582727143
3203228.875,1.069821,0.018827,0.190722,-0.186471,0.130241,-1.835229,0.218530683,-0.373149395,-0.002879055,1.535435755,0.864081417,-0.561782859
3203238.75,1.044643,2.88E-06,0.185103,-0.163464,0.121687,-1.796422,0.217243516,-0.382081389,-0.034411482,1.515693083,0.827969708,-0.53460345
3203248.625,1.056132,-0.011731,0.185591,-0.1379,0.102135,-1.748519,0.221450072,-0.398277524,-0.029262489,1.49144415,0.778386356,-0.50643429
3203258.5,1.116754,-0.030311,0.179727,-0.126397,0.078916,-1.743668,0.250251181,-0.433847096,0.01464826,1.501502889,0.745875371,-0.501738015
3203268.375,1.153421,-0.047423,0.17142,-0.120645,0.046532,-1.781869,0.271638307,-0.460931319,0.037192706,1.550395173,0.722547864,-0.515729549
3203278.25,1.155377,-0.05109,0.165068,-0.121284,0.023313,-1.832198,0.275226914,-0.466598715,0.035031125,1.605728518,0.71299859,-0.534295568
3203288.125,1.133865,-0.073337,0.16238,-0.122562,-0.013959,-1.856452,0.275307742,-0.478456353,0.006320319,1.636097659,0.689274382,-0.556520981
3203350,1.095243,-0.226128,0.173864,-0.016474,-0.195431,-1.683638,0.282244367,-0.607734235,-0.087905153,1.56479705,0.427722052,-0.491493258
3203359.875,1.124332,-0.242507,0.164335,-0.008166,-0.209484,-1.693946,0.299259835,-0.63113763,-0.071535178,1.583805007,0.409434382,-0.487163697
3203369.75,1.128732,-0.253264,0.164335,-0.001775,-0.231481,-1.702435,0.297524674,-0.6450032,-0.072296107,1.602143088,0.384165173,-0.487263973
3203379.625,1.105754,-0.264509,0.16067,0.011007,-0.24309,-1.685457,0.290086987,-0.648660219,-0.09802371,1.59671933,0.35724678,-0.472060716
3203389.5,1.069087,-0.277955,0.167511,0.019954,-0.250423,-1.638767,0.269389007,-0.652799144,-0.134235152,1.561413196,0.325627861,-0.45235213
3203399.375,1.040976,-0.296779,0.178017,0.037849,-0.257755,-1.593289,0.249835718,-0.66490478,-0.16400801,1.529732771,0.29209655,-0.425484757
3203409.25,1.009687,-0.318292,0.182171,0.058938,-0.255311,-1.516887,0.235968478,-0.675495472,-0.198758055,1.468116191,0.256618349,-0.385208304
3203419.125,0.994776,-0.338093,0.189989,0.089615,-0.259588,-1.436241,0.228230234,-0.690651787,-0.218403521,1.405147728,0.216016223,-0.342201462
3203481,1.023865,-0.366696,0.165801,0.145854,-0.241257,-1.292532,0.261771681,-0.71674149,-0.207527483,1.289038932,0.16248491,-0.249187855
3203491,0.995998,-0.375497,0.169466,0.145854,-0.23698,-1.251905,0.246946085,-0.715193807,-0.232377575,1.251914302,0.149557834,-0.234610473
3203501,0.967642,-0.382097,0.171665,0.145215,-0.233925,-1.18096,0.233116148,-0.710715331,-0.256805134,1.186735654,0.126312119,-0.214891971
3203511,0.956398,-0.39212,0.171665,0.147772,-0.231481,-1.124568,0.227690552,-0.713884252,-0.267572264,1.135918377,0.106490349,-0.196016456
3203521,0.991598,-0.4107,0.181438,0.137546,-0.229648,-1.078485,0.229351173,-0.742679406,-0.237972329,1.090667688,0.093809131,-0.190868651
3203531,1.041465,-0.43099,0.170932,0.129238,-0.225371,-1.065751,0.254240893,-0.771291124,-0.199943099,1.076318616,0.093304347,-0.190137526
3203541,1.067132,-0.446147,0.168488,0.115817,-0.227815,-1.090612,0.262854461,-0.790018799,-0.179644049,1.09676289,0.099924907,-0.204631285
3203551,1.056376,-0.445658,0.172398,0.084502,-0.225371,-1.092431,0.255868507,-0.787397362,-0.188335612,1.088457881,0.112594463,-0.232207004
3203612,0.92902,-0.42219,0.181926,0.03018,-0.192987,-0.707389,0.1994398,-0.723918971,-0.285447892,0.708403859,0.035857659,-0.188234461
3203622,0.964465,-0.424145,0.176551,0.035292,-0.176489,-0.667975,0.211254966,-0.729340804,-0.248537889,0.670436631,0.03444524,-0.167071068
3203632,0.995509,-0.434413,0.175085,0.026345,-0.163047,-0.638263,0.219728604,-0.741470593,-0.217473143,0.637927176,0.037773865,-0.162111362
3203642,1.006998,-0.442725,0.176307,0.014202,-0.150827,-0.618859,0.219616071,-0.746256532,-0.202501081,0.614348214,0.044199703,-0.162971166
3203652,1.01042,-0.444192,0.176063,0.011007,-0.127608,-0.592785,0.217428003,-0.741644837,-0.192571187,0.584650806,0.056243366,-0.151060023
3203662,1.00822,-0.437347,0.189256,0.011007,-0.106222,-0.571563,0.199531644,-0.731473136,-0.182239659,0.560710913,0.067504959,-0.138328894
3203672,1.016776,-0.435146,0.192921,0.016759,-0.084226,-0.552159,0.194809714,-0.725234026,-0.165440972,0.539847918,0.078687006,-0.120942236
3203682,1.028265,-0.432213,0.194387,0.022511,-0.054286,-0.533968,0.195979697,-0.726003389,-0.153575561,0.51792428,0.099404267,-0.102219234
3203743,1.122132,-0.411189,0.189501,0.008451,0.114966,-0.440587,0.219892608,-0.71940673,-0.05222975,0.390082063,0.231051814,-0.043087686
3203753,1.108687,-0.390409,0.189256,0.01612,0.140629,-0.389653,0.209983998,-0.685140584,-0.049256614,0.338938276,0.237884167,-0.019944896
3203763,1.108687,-0.377452,0.185836,0.008451,0.178512,-0.310219,0.208516284,-0.659399185,-0.036721448,0.254102865,0.252189529,-0.002440697
3203773,1.122865,-0.357162,0.185591,0.000143,0.218228,-0.21987,0.206137859,-0.629501529,-0.007997213,0.158319425,0.265778779,0.016214116
3203783,1.128976,-0.347872,0.179483,-0.008166,0.250001,-0.119213,0.209319617,-0.60507157,0.008905138,0.054473641,0.26956945,0.033820956
3203793,1.140954,-0.353984,0.171176,-0.019669,0.286662,-0.035535,0.21943759,-0.59384593,0.027412323,-0.035531908,0.283777517,0.045083394
3203803,1.138265,-0.364985,0.168733,-0.030534,0.318435,0.099078,0.221344169,-0.584162114,0.033002163,-0.172262983,0.279706078,0.065112203
3203813,1.11871,-0.375008,0.170443,-0.041398,0.35143,0.25734,0.216860554,-0.590815043,0.012473686,-0.331067954,0.269603513,0.095648683
3203874,1.073243,-0.374519,0.141612,-0.080382,0.449804,1.303321,0.228213505,-0.545952945,-0.019172311,-1.34718387,0.088315001,0.291078363
3203883.875,1.084243,-0.382586,0.133305,-0.093164,0.446138,1.426414,0.235960595,-0.522100127,0.005713284,-1.467310073,0.057994567,0.293280286
3203893.75,1.088398,-0.376963,0.127197,-0.119367,0.436972,1.56891,0.235596753,-0.483012198,0.02668582,-1.60780769,0.018612307,0.285095793
3203903.625,1.107954,-0.378919,0.123288,-0.145569,0.421697,1.694428,0.237456125,-0.450878973,0.061444462,-1.730798872,-0.022661735,0.271894557
3203913.5,1.127754,-0.389431,0.120356,-0.174967,0.402144,1.805999,0.23916942,-0.424900627,0.095549452,-1.840194677,-0.065215871,0.251785777
3203923.375,1.145599,-0.378186,0.120356,-0.192862,0.386869,1.898773,0.230799362,-0.376519571,0.129102278,-1.930134193,-0.09957693,0.238471617
3203933.25,1.15611,-0.368163,0.120112,-0.221621,0.35754,1.97275,0.219736644,-0.327686659,0.153645734,-2.001029468,-0.14385709,0.209474311
3203943.125,1.153665,-0.347628,0.121333,-0.244628,0.328211,2.049758,0.212977549,-0.30821267,0.151588194,-2.071412927,-0.192128274,0.203490513
3204004,1.238244,-0.262309,0.129152,-0.337295,0.134519,2.342026,0.184439215,-0.180643267,0.24582689,-2.320853816,-0.45379668,0.157019751
3204013.875,1.258044,-0.267687,0.138192,-0.335378,0.103968,2.34142,0.161973332,-0.144088965,0.275316068,-2.313799449,-0.481799431,0.140487663
3204023.75,1.26611,-0.26182,0.143078,-0.332183,0.068529,2.332931,0.136814865,-0.098247381,0.289839022,-2.297611924,-0.513180985,0.123424237
3204033.625,1.252177,-0.242018,0.1443,-0.313649,0.037978,2.323229,0.106921427,-0.045292933,0.278224863,-2.279030887,-0.537559172,0.119412577
3204043.5,1.240932,-0.218305,0.148454,-0.296394,0.012315,2.315953,0.073332569,0.004494126,0.266574131,-2.264413148,-0.558143135,0.112020969
3204053.375,1.229688,-0.200704,0.149187,-0.279138,-0.023124,2.318985,0.046919689,0.039064552,0.253373024,-2.257259068,-0.590840613,0.108779797
3204063.25,1.214532,-0.178702,0.147232,-0.255492,-0.040232,2.315953,0.02549246,0.070899348,0.234108205,-2.248079249,-0.603469404,0.111791963
3204073.125,1.205243,-0.176746,0.152852,-0.240154,-0.060396,2.329293,0.018650469,0.069437185,0.225579132,-2.254405633,-0.622093526,0.132598589
3204134,1.171754,-0.079937,0.148454,-0.036925,-0.1826,2.482097,-0.012512006,0.164032835,0.172336398,-2.350341565,-0.73248053,0.367258133
3204144,1.14951,-0.055491,0.147232,-0.01903,-0.197264,2.519085,-0.026299892,0.191878832,0.143949554,-2.379452475,-0.757305776,0.386986233
3204154,1.125799,-0.030555,0.152119,0.003977,-0.221705,2.574871,-0.045991821,0.218790443,0.114231879,-2.423549315,-0.794453124,0.41759136
3204164,1.104532,0.002448,0.150408,0.018676,-0.244923,2.654912,-0.06110774,0.255472809,0.083336968,-2.491731942,-0.838343104,0.444237063
3204174,1.085465,0.040829,0.148942,0.03721,-0.262643,2.717974,-0.077886568,0.29789749,0.052271714,-2.544404433,-0.872556137,0.471593536
3204184,1.073487,0.068453,0.150653,0.055743,-0.288917,2.799833,-0.094837116,0.331531367,0.029975414,-2.612781964,-0.919362744,0.503773456
3204194,1.062732,0.097789,0.149675,0.067247,-0.313968,2.87381,-0.110244665,0.367641256,0.007000804,-2.674218029,-0.965566411,0.527372181
3204204,1.049532,0.134704,0.141368,0.082585,-0.335354,2.936265,-0.112955822,0.399881077,-0.016646755,-2.727626096,-0.995919219,0.555999576
3204264,1.053443,0.255225,0.141124,0.046796,-0.405621,3.064209,-0.154258197,0.524341887,-0.053391352,-2.83146581,-1.110359328,0.553171391
3204274,1.055887,0.259137,0.140147,0.034014,-0.3989,3.049049,-0.163372082,0.540156153,-0.060196075,-2.817254372,-1.112061181,0.532330442
3204284,1.053687,0.274782,0.12964,0.021232,-0.383013,2.990838,-0.166179687,0.566863865,-0.076085696,-2.764309943,-1.09400664,0.503985825
3204294,1.040487,0.309986,0.128663,-0.001775,-0.361017,2.902309,-0.18350581,0.604322011,-0.107599188,-2.684459164,-1.065521406,0.460518282
3204304,1.02142,0.337121,0.120112,-0.024782,-0.339631,2.829545,-0.190860004,0.633085289,-0.14317344,-2.619760973,-1.040934764,0.419041204
3204314,0.993309,0.3491,0.111316,-0.056097,-0.322523,2.741015,-0.192679347,0.644502366,-0.182432754,-2.538677473,-1.018413198,0.371863466
3204324,0.954198,0.380392,0.136237,-0.079743,-0.301137,2.68523,-0.231696363,0.659484542,-0.235049445,-2.490016698,-0.997589919,0.33486384
3204334,0.917531,0.399949,0.144056,-0.098277,-0.295027,2.647635,-0.245004388,0.661166769,-0.275151172,-2.455832927,-0.989274722,0.311272473
3204394,0.705597,0.51827,0.162869,-0.219703,-0.337187,2.597913,-0.302125703,0.687597348,-0.521536651,-2.395893397,-1.061830001,0.208154552
3204404,0.696063,0.523404,0.173131,-0.222899,-0.351851,2.61853,-0.317496502,0.690873744,-0.541394253,-2.410237478,-1.084176198,0.21330664
3204414,0.67553,0.54345,0.181193,-0.221621,-0.367738,2.648242,-0.334872603,0.703031203,-0.577960838,-2.432773217,-1.108427853,0.224799827
3204424,0.653041,0.558607,0.194387,-0.211395,-0.383624,2.671283,-0.355587745,0.707981332,-0.614499776,-2.448920725,-1.127253997,0.244323136
3204434,0.624196,0.57352,0.199029,-0.20117,-0.390957,2.685836,-0.367737499,0.711314966,-0.658007997,-2.459263436,-1.136494198,0.259684525
3204444,0.601463,0.59381,0.202694,-0.185193,-0.402566,2.686442,-0.380359991,0.72105234,-0.698565572,-2.45509961,-1.143249809,0.280699535
3204454,0.575796,0.610679,0.197808,-0.164103,-0.402566,2.664007,-0.383417549,0.727754739,-0.741230022,-2.432373419,-1.131387252,0.299073419
3204464,0.555507,0.61459,0.197075,-0.148765,-0.400733,2.63005,-0.383106062,0.72201021,-0.761089027,-2.400902199,-1.113718976,0.308511973
3204524,0.454307,0.697219,0.209535,0.064051,-0.244312,2.498469,-0.418271386,0.74227731,-0.897591293,-2.324503981,-0.852685305,0.419222188
3204534,0.436218,0.731934,0.189989,0.077472,-0.214372,2.440258,-0.411988687,0.767486662,-0.942216877,-2.275655385,-0.809251513,0.416318305
3204544,0.403218,0.744401,0.18779,0.087058,-0.177711,2.37477,-0.415068754,0.761279602,-0.987590929,-2.221872561,-0.759891971,0.405634517
3204554,0.379262,0.770315,0.184125,0.097923,-0.149605,2.316559,-0.420883592,0.77005104,-1.031706112,-2.172899456,-0.718660814,0.400563053
3204564,0.357995,0.775449,0.190234,0.099201,-0.127608,2.289273,-0.429940883,0.759567443,-1.062279076,-2.151418194,-0.695746869,0.392723259
3204574,0.339906,0.796962,0.185103,0.098562,-0.117221,2.272295,-0.433123208,0.766437372,-1.099627709,-2.136483614,-0.686171281,0.389084228
3204584,0.316928,0.82752,0.171665,0.086419,-0.125775,2.257742,-0.430581266,0.779516888,-1.147155612,-2.117778736,-0.698358659,0.384701104
3204594,0.281973,0.844143,0.163602,0.05766,-0.150827,2.243189,-0.4256819,0.776498259,-1.18627175,-2.094634276,-0.729473994,0.371947967
3204714,-0.081518,0.796228,0.196586,-0.110419,-0.262643,2.149202,-0.419296152,0.527765731,-1.474261887,-1.960080449,-0.882519982,0.281932708
3204724,-0.145074,0.801117,0.196586,-0.114893,-0.263865,2.124341,-0.415236903,0.487788913,-1.539556539,-1.934644609,-0.8799099,0.280283122
3204734,-0.211807,0.810652,0.203183,-0.112976,-0.254089,2.141926,-0.41788467,0.445060622,-1.608765675,-1.953178518,-0.877468963,0.283396688
3204744,-0.267297,0.807718,0.216621,-0.090608,-0.240035,2.199531,-0.423570398,0.394777032,-1.659939333,-2.012615566,-0.871702827,0.305411196
3204754,-0.285386,0.808207,0.215644,-0.065683,-0.220483,2.238944,-0.41962707,0.371937307,-1.683170418,-2.056487059,-0.85531636,0.324179187
3204764,-0.264608,0.787183,0.224439,-0.031173,-0.213761,2.206807,-0.422403825,0.354014959,-1.660526874,-2.029549138,-0.82167486,0.349919103
3204774,-0.265585,0.76787,0.220774,-0.007527,-0.191765,2.090991,-0.412148207,0.329053329,-1.656322063,-1.926930078,-0.758320819,0.347798565
3204784,-0.266074,0.737067,0.222973,0.00206,-0.176489,1.950314,-0.404998515,0.305696426,-1.637421362,-1.798904176,-0.699944412,0.329998326
3204846,-0.416408,0.660061,0.18046,0.057021,-0.086059,0.723636,-0.327705445,0.165823587,-1.711866306,-0.666357109,-0.240187311,0.180512784
3204855.875,-0.464564,0.674729,0.175574,0.054465,-0.087892,0.556885,-0.323926613,0.14545406,-1.758827931,-0.506866674,-0.194226026,0.161786182
3204865.75,-0.492431,0.683529,0.178994,0.049991,-0.082393,0.430154,-0.328738625,0.132144249,-1.784989076,-0.387473607,-0.155849793,0.141050402
3204875.625,-0.504409,0.67864,0.186324,0.048074,-0.079338,0.251883,-0.33519455,0.119149193,-1.789395595,-0.218901445,-0.102198784,0.11699675
3204885.5,-0.501964,0.674484,0.189256,0.047435,-0.068339,0.062696,-0.339544617,0.118525018,-1.783183012,-0.042754761,-0.03857686,0.086804049
3204895.375,-0.494142,0.66495,0.186324,0.040405,-0.058563,-0.129522,-0.337803561,0.121343323,-1.769555718,0.137025425,0.021224076,0.051104883
3204905.25,-0.500009,0.656883,0.183637,0.037849,-0.049398,-0.430886,-0.335591812,0.116612168,-1.767467629,0.419478619,0.116424306,0.004303843
3204915.125,-0.503187,0.64906,0.177529,0.047435,-0.027401,-0.436343,-0.327080587,0.11078318,-1.765988226,0.416882766,0.139999216,-0.002255383
3204976,-0.343319,0.693064,0.189256,0.113261,0.122909,-1.270703,-0.372308823,0.24891086,-1.658371477,1.152084539,0.540516669,-0.152196376
3204986,-0.31863,0.694775,0.192188,0.119652,0.147961,-1.46474,-0.383990261,0.276272971,-1.630395376,1.326107779,0.621687624,-0.191350421
3204996,-0.298341,0.712132,0.195364,0.138185,0.173624,-1.632703,-0.400632142,0.312902223,-1.613100739,1.47408761,0.703014489,-0.21862255
3205006,-0.280986,0.722399,0.210757,0.15608,0.200508,-1.737605,-0.426309247,0.338623393,-1.590615428,1.561850563,0.766419038,-0.238872846
3205016,-0.271208,0.733889,0.227616,0.192508,0.222505,-1.790358,-0.45344416,0.360539552,-1.573023134,1.601184072,0.820812736,-0.233292932
3205026,-0.251897,0.760292,0.229326,0.233409,0.251834,-1.832198,-0.471748313,0.404240242,-1.555094401,1.628040073,0.879575271,-0.225127739
3205036,-0.191763,0.794517,0.236167,0.255138,0.287884,-1.891015,-0.497666275,0.473932102,-1.501519495,1.669335202,0.93847418,-0.237689973
3205046,-0.092274,0.816763,0.23519,0.252582,0.318435,-1.983789,-0.505203375,0.542250092,-1.426221789,1.745594252,0.990219823,-0.270153145
3205107,0.002816,0.878124,0.245451,-0.032451,0.569563,-2.793288,-0.538155236,0.651837311,-1.341837601,2.414638635,1.300999123,-0.777711049
3205116.875,0.013082,0.895237,0.242764,-0.071435,0.598892,-2.809053,-0.541655937,0.686537288,-1.309564503,2.414595454,1.316408988,-0.831474301
3205126.75,0.056838,0.901837,0.232502,-0.104668,0.623333,-2.83634,-0.531041208,0.728037396,-1.241980369,2.426327797,1.33572452,-0.8792596
3205136.625,0.090816,0.889859,0.222729,-0.154516,0.651439,-2.873328,-0.51212512,0.746306595,-1.174525415,2.443870488,1.356670324,-0.944036245
3205146.5,0.136772,0.890836,0.211734,-0.204365,0.665493,-2.90304,-0.49278341,0.77742667,-1.099493365,2.458254809,1.365977691,-1.001686312
3205156.375,0.163416,0.880813,0.20074,-0.259966,0.677713,-2.937603,-0.468830156,0.788386,-1.038453579,2.475921603,1.37573086,-1.064690299
3205166.25,0.177839,0.882525,0.194631,-0.315566,0.67588,-2.93639,-0.453067629,0.801877785,-0.991052804,2.46333096,1.365411366,-1.116438217
3205176.125,0.195928,0.882036,0.194876,-0.357746,0.67588,-2.898796,-0.450598824,0.806612777,-0.973761305,2.422413159,1.342413591,-1.147891311
3205237,0.408595,0.802584,0.174108,-0.478533,0.634942,-2.414915,-0.361373786,0.797977001,-0.727885614,1.962845056,1.144559387,-1.140693968
3205246.875,0.449907,0.787183,0.172642,-0.498984,0.635553,-2.381565,-0.334032763,0.788641429,-0.65598626,1.922242809,1.143930417,-1.149421717
3205256.75,0.450396,0.771782,0.17704,-0.498984,0.638608,-2.313652,-0.318663328,0.76585811,-0.62348677,1.851897961,1.141446558,-1.130205505
3205266.625,0.460662,0.74269,0.187546,-0.491315,0.63983,-2.233006,-0.302942056,0.728909351,-0.58060915,1.772050028,1.135578872,-1.098812076
3205276.5,0.47264,0.731689,0.186813,-0.47406,0.638608,-2.141444,-0.282045068,0.710524246,-0.542547997,1.685591912,1.126255203,-1.052931428
3205286.375,0.498551,0.7268,0.176796,-0.449135,0.632498,-2.075957,-0.250842646,0.70011496,-0.495059236,1.627477774,1.119923478,-1.004221555
3205296.25,0.530085,0.717999,0.16971,-0.426128,0.628832,-2.023203,-0.219313199,0.682746033,-0.442260159,1.58131346,1.118513568,-0.958509403
3205306.125,0.589485,0.705776,0.156516,-0.410151,0.623333,-2.000161,-0.188175827,0.678983031,-0.388705073,1.565746017,1.108196388,-0.936884237
3205366,0.608063,0.657616,0.157738,-0.24974,0.512738,-1.749732,-0.15857981,0.616378489,-0.350376498,1.404797479,0.95729512,-0.704955667
3205376,0.648152,0.650526,0.146499,-0.225455,0.488909,-1.70668,-0.123393535,0.59483062,-0.295942035,1.3766741,0.934356411,-0.659063813
3205386,0.71073,0.646859,0.130373,-0.207561,0.456525,-1.687276,-0.077907089,0.574261151,-0.222365488,1.371552294,0.908349925,-0.626212156
3205396,0.736886,0.643926,0.1206,-0.193501,0.418642,-1.695765,-0.04879033,0.549777371,-0.182962439,1.392571891,0.883882149,-0.606480478
3205406,0.720508,0.62828,0.120845,-0.184554,0.377093,-1.705467,-0.038818336,0.511464981,-0.184299221,1.413699413,0.855976705,-0.594672049
3205416,0.694108,0.603589,0.131106,-0.169855,0.349597,-1.694553,-0.040365117,0.463336356,-0.195646559,1.414198182,0.834987596,-0.570454091
3205426,0.699975,0.57352,0.133794,-0.138539,0.320268,-1.665447,-0.025529724,0.409379634,-0.182352415,1.404874831,0.80381073,-0.525065117
3205436,0.745686,0.554696,0.114004,-0.128953,0.290939,-1.631491,0.011978835,0.391035025,-0.149305994,1.383744112,0.764897373,-0.513051168
3205496,0.802397,0.473289,0.098611,-0.127036,0.103968,-1.694553,0.066110189,0.285041385,-0.11008517,1.488391448,0.613337574,-0.554044473
3205506,0.862531,0.450309,0.083951,-0.11681,0.083193,-1.692127,0.105396311,0.231389352,-0.05705977,1.497920024,0.597674942,-0.531864364
3205516,0.910687,0.443464,0.081019,-0.127036,0.055697,-1.716988,0.124141787,0.190367928,-0.009583886,1.528285269,0.586276942,-0.536573924
3205526,0.980842,0.434174,0.071002,-0.141096,0.022702,-1.778231,0.155751623,0.141408797,0.054203187,1.592719959,0.581191174,-0.554967479
3205536,1.01042,0.440041,0.064405,-0.162186,-0.013959,-1.892228,0.167319082,0.112028213,0.085443074,1.70493291,0.590717499,-0.592690953
3205546,1.000643,0.44542,0.058297,-0.176885,-0.040232,-2.018352,0.16479799,0.093577838,0.08035584,1.829553231,0.611004147,-0.621337766
3205556,0.997954,0.420973,0.056098,-0.197335,-0.075671,-2.088084,0.165698967,0.047311301,0.070786128,1.902944877,0.606945336,-0.644344743
3205566,1.007731,0.398971,0.057564,-0.210756,-0.101334,-2.162061,0.171627395,0.02393925,0.071440241,1.972961204,0.609753482,-0.681776515
3205627,1.037065,0.33541,0.084196,-0.234402,-0.16488,-2.377321,0.161382645,-0.069760407,0.078972556,2.188371161,0.619103308,-0.749351457
3205637,1.070554,0.311941,0.077599,-0.227372,-0.158159,-2.394299,0.175419085,-0.116332511,0.097774818,2.213366386,0.621790725,-0.723716473
3205647,1.092554,0.28285,0.085173,-0.209478,-0.14655,-2.393086,0.174289255,-0.165785232,0.105925548,2.222409925,0.61813444,-0.686310772
3205657,1.130687,0.24618,0.088349,-0.20117,-0.137384,-2.380959,0.183831377,-0.224713105,0.123642859,2.217687492,0.611797862,-0.660208344
3205667,1.132399,0.2254,0.106185,-0.184554,-0.123942,-2.350641,0.167226682,-0.258777566,0.117800214,2.196146633,0.601504022,-0.624554071
3205677,1.097198,0.214888,0.117424,-0.146847,-0.09889,-2.311227,0.146586651,-0.265824011,0.082431822,2.168221575,0.591405825,-0.567598335
3205687,1.028509,0.203643,0.134527,-0.100833,-0.06895,-2.253622,0.113118109,-0.260142265,0.018297129,2.123190485,0.578172636,-0.501509803
3205697,0.986954,0.180174,0.147476,-0.050984,-0.035344,-2.197836,0.093654403,-0.267940155,-0.026487306,2.077946554,0.573361959,-0.433273391
3205831,1.157332,-0.068203,0.075644,0.115817,0.04531,-1.770348,0.245527866,-0.537134027,0.00049694,1.704666444,0.462331583,-0.173090835
3205841,1.139977,-0.076515,0.065138,0.097284,0.034312,-1.73336,0.248713927,-0.537061115,-0.020534939,1.667878246,0.447010626,-0.183144856
3205851,1.133376,-0.082627,0.058786,0.067886,0.024535,-1.685457,0.250494926,-0.539783526,-0.030097835,1.617734884,0.434117076,-0.201126781
3205861,1.099154,-0.084827,0.062451,0.0436,0.013537,-1.631491,0.234818211,-0.529919152,-0.060169503,1.563489475,0.416315027,-0.214544994
3205871,1.087665,-0.095339,0.057808,0.00909,-0.001127,-1.556907,0.234197067,-0.533630526,-0.074885609,1.487697207,0.393898715,-0.235890073
3205881,1.09011,-0.102917,0.056831,-0.025421,-0.011515,-1.490207,0.233221733,-0.540754014,-0.075146388,1.418778648,0.377168012,-0.257501778
3205891,1.096465,-0.116118,0.065138,-0.057375,-0.021291,-1.441091,0.225155833,-0.556385215,-0.072798734,1.367277146,0.364344985,-0.279811373
3205901,1.104043,-0.127608,0.064649,-0.085495,-0.024346,-1.405922,0.22931987,-0.569423725,-0.071267929,1.327242847,0.364083445,-0.300646739
3205985,1.116265,-0.279666,0.09348,-0.213952,-0.01457,-1.237352,0.225531062,-0.713498431,-0.120764615,1.134807972,0.376084958,-0.384445947
3205995,1.081798,-0.282355,0.087616,-0.223538,-0.009682,-1.234927,0.219642383,-0.698756279,-0.150774053,1.13126236,0.377738851,-0.390725616
3206005,1.087665,-0.29629,0.082485,-0.23568,-0.00846,-1.242203,0.224537329,-0.710126228,-0.149758611,1.137006206,0.379342877,-0.402493225
3206015,1.072998,-0.307291,0.080531,-0.24335,-0.004793,-1.231895,0.221227258,-0.711598649,-0.165180516,1.126500741,0.377174591,-0.406869629
3206025,1.052954,-0.320736,0.087616,-0.24271,-0.001127,-1.225225,0.208539986,-0.715185949,-0.18496601,1.121339022,0.372610239,-0.404779103
3206035,1.016287,-0.331737,0.095923,-0.244628,9.50E-05,-1.205215,0.190666059,-0.710183078,-0.218094395,1.102957933,0.363844538,-0.404335275
3206045,0.985731,-0.336627,0.103009,-0.246545,0.008038,-1.162769,0.174654854,-0.701653863,-0.243183157,1.061963003,0.356292328,-0.397707368
3206055,0.962265,-0.342983,0.104963,-0.244628,0.009871,-1.125175,0.168216916,-0.698814995,-0.266536182,1.025942624,0.348966444,-0.389388276
3206117,1.052465,-0.436613,0.088838,-0.246545,0.001317,-1.182173,0.214049796,-0.811552865,-0.224261442,1.083040656,0.34871394,-0.404648859
3206126.875,1.023131,-0.429035,0.09519,-0.23632,0.002539,-1.157918,0.197135515,-0.792478134,-0.243002506,1.063155089,0.335245093,-0.392351461
3206136.75,1.00382,-0.424879,0.101054,-0.211395,0.005594,-1.128207,0.183639697,-0.779944906,-0.254110548,1.040969732,0.317128667,-0.365214455
3206146.625,1.009931,-0.421945,0.103497,-0.200531,0.012926,-1.096676,0.179510942,-0.777111995,-0.243308117,1.013175506,0.308372554,-0.348510795
3206156.5,1.000887,-0.410944,0.101787,-0.172411,0.017203,-1.079091,0.175106749,-0.760360416,-0.243560964,1.003013433,0.293806081,-0.319532348
3206166.375,1.005776,-0.408988,0.097389,-0.155156,0.027591,-1.069389,0.177467735,-0.756252336,-0.235193639,0.997276927,0.290774311,-0.29885868
3206176.25,1.019709,-0.411678,0.085906,-0.139178,0.03309,-1.056049,0.189299551,-0.758136746,-0.22150182,0.98824423,0.283418217,-0.2806286
3206186.125,1.024843,-0.432702,0.083218,-0.12384,0.036756,-1.043315,0.195509056,-0.778664576,-0.225456832,0.97884861,0.278817283,-0.263267658
3206447,1.095732,-0.352517,0.036552,0.128599,0.001317,1.298471,0.241849307,-0.696280477,-0.115163682,-1.231125847,-0.289620272,0.320960468
3206457,1.092065,-0.346161,0.040217,0.106231,-0.011515,1.413074,0.23098131,-0.663037601,-0.093865582,-1.347150389,-0.310715956,0.31118672
3206467,1.09231,-0.33956,0.036796,0.072998,-0.029845,1.494933,0.226946119,-0.627909594,-0.07047266,-1.432700304,-0.328449753,0.283786371
3206477,1.088398,-0.327581,0.034109,0.0436,-0.046343,1.591345,0.219706778,-0.585437093,-0.050223561,-1.531556076,-0.349482871,0.261964216
3206487,1.109176,-0.329293,0.027023,0.009729,-0.064062,1.663503,0.222465746,-0.559374933,-0.011544539,-1.607105234,-0.367543114,0.231442541
3206497,1.135087,-0.337604,0.025069,-0.012639,-0.078727,1.738692,0.221065923,-0.539334324,0.031152636,-1.683612689,-0.386749569,0.212792485
3206507,1.155621,-0.341027,0.026779,-0.048428,-0.095224,1.782351,0.213380044,-0.511748601,0.07007418,-1.731036908,-0.400844124,0.176133986
3206517,1.165154,-0.339805,0.029466,-0.077826,-0.112944,1.835104,0.212121885,-0.512482851,0.079946832,-1.784542673,-0.422954753,0.151448505
3206578,1.18251,-0.237373,0.047791,-0.219064,-0.171601,2.044907,0.168908557,-0.379267048,0.133395883,-2.003326597,-0.495035786,0.02650836
3206588,1.193021,-0.23444,0.05341,-0.237598,-0.174045,2.075832,0.151993694,-0.337691154,0.159299983,-2.036007193,-0.500441426,0.007486851
3206598,1.19351,-0.229795,0.065871,-0.245267,-0.165491,2.107969,0.126245826,-0.293614577,0.174505565,-2.069823861,-0.49689589,-0.000370233
3206608,1.203532,-0.224661,0.065627,-0.247184,-0.151438,2.136468,0.114115953,-0.246041567,0.195704746,-2.100146615,-0.487754033,-0.003018462
3206618,1.212821,-0.215127,0.079065,-0.248462,-0.147161,2.170425,0.086831911,-0.195628184,0.215588545,-2.134184507,-0.489226293,-0.00696626
3206628,1.214288,-0.205837,0.072957,-0.242071,-0.133107,2.178308,0.07681847,-0.142647405,0.223085272,-2.143335476,-0.476837304,-0.008989235
3206638,1.214532,-0.196792,0.067826,-0.231207,-0.126997,2.189829,0.065612623,-0.090207968,0.227180892,-2.154535643,-0.472084779,-0.006934624
3206648,1.201821,-0.185302,0.074911,-0.229929,-0.109888,2.198924,0.055778859,-0.081138389,0.214342409,-2.16605712,-0.456473703,-0.006147183
3206710,1.135821,-0.067714,0.086639,-0.095081,-0.034733,2.443896,0.008736962,0.039811144,0.140403255,-2.408362616,-0.408476121,0.125742621
3206719.875,1.146088,-0.044245,0.078576,-0.084217,-0.035344,2.466331,0.006148388,0.075606697,0.147124813,-2.429796237,-0.4137981,0.126458221
3206729.75,1.14071,-0.032511,0.07711,-0.067601,-0.028623,2.477853,0.000151499,0.096594704,0.139689283,-2.44105964,-0.409774272,0.135858533
3206739.625,1.12531,-0.014176,0.076133,-0.049067,-0.034733,2.501501,-0.006461877,0.122841191,0.121243985,-2.462002986,-0.419876809,0.152859302
3206749.5,1.103065,0.013448,0.077354,-0.036925,-0.042677,2.541521,-0.016524753,0.157099743,0.094515184,-2.499058807,-0.435263515,0.166626905
3206759.375,1.09011,0.043762,0.07882,-0.019669,-0.053675,2.589424,-0.02705546,0.195226874,0.07592843,-2.543134082,-0.45414058,0.18603736
3206769.25,1.074465,0.07212,0.074423,-0.012,-0.072616,2.631263,-0.032039599,0.231740286,0.053795529,-2.580465386,-0.481386284,0.196029832
3206779.125,1.068354,0.106834,0.067826,-0.001775,-0.088503,2.655518,-0.031576715,0.265615068,0.042039196,-2.601227454,-0.498991411,0.210321383
3206840,1.011398,0.234446,0.080286,0.016759,-0.288917,2.709484,-0.073224035,0.389000427,-0.036852248,-2.619653107,-0.704086064,0.258336714
3206849.875,0.999909,0.263048,0.079309,0.02315,-0.328633,2.716761,-0.083263826,0.424893693,-0.057750213,-2.619118241,-0.747174583,0.266975067
3206859.75,0.976931,0.296051,0.077354,0.028901,-0.357351,2.714335,-0.093680323,0.462415587,-0.091473811,-2.610799253,-0.778180164,0.272602985
3206869.625,0.971309,0.37648,0.081752,0.03657,-0.397067,2.682198,-0.117725873,0.547277734,-0.117679506,-2.571027101,-0.814673133,0.281625663
3206879.5,0.949309,0.337121,0.092258,0.049991,-0.421507,2.641571,-0.127562233,0.511412261,-0.136556279,-2.525139202,-0.834002569,0.293558039
3206889.375,0.936598,0.350322,0.098367,0.073637,-0.449614,2.599126,-0.141631822,0.528468056,-0.15721929,-2.476328421,-0.854289252,0.317834153
3206899.25,0.917287,0.36059,0.115714,0.09984,-0.469778,2.567595,-0.166359351,0.538703787,-0.183328025,-2.439466804,-0.868155946,0.34425346
3206909.125,0.903842,0.385037,0.11718,0.133073,-0.472833,2.548797,-0.172384322,0.558723986,-0.201860816,-2.419979293,-0.860113181,0.376232844
3206969,0.856175,0.478178,0.119379,0.247469,-0.499107,2.294124,-0.198041647,0.640805849,-0.274680383,-2.161226993,-0.821779909,0.476580841
3206979,0.83882,0.50238,0.115469,0.250665,-0.508883,2.238944,-0.204750581,0.664477642,-0.302945906,-2.10313909,-0.827246296,0.476586421
3206989,0.806064,0.530494,0.122311,0.248747,-0.51316,2.193467,-0.222734067,0.685564558,-0.346919753,-2.055692249,-0.829901246,0.471061605
3206999,0.786508,0.549562,0.128907,0.241717,-0.529658,2.172244,-0.238702604,0.700686678,-0.376069325,-2.029734299,-0.849656652,0.464619144
3207009,0.760353,0.57352,0.127197,0.234687,-0.544322,2.13283,-0.247331161,0.719665653,-0.413357352,-1.986409142,-0.863733379,0.456586911
3207019,0.739819,0.598944,0.125976,0.212319,-0.56693,2.094023,-0.256733568,0.740827723,-0.445745384,-1.941749579,-0.889345276,0.435998692
3207029,0.710486,0.613857,0.125487,0.208485,-0.58526,2.055215,-0.264236485,0.749235116,-0.484070178,-1.898471688,-0.904859437,0.432363978
3207039,0.68433,0.631214,0.124265,0.17014,-0.592592,2.050364,-0.265928026,0.758490896,-0.514042904,-1.891317275,-0.921455832,0.397421118
3207099,0.493907,0.738534,0.215888,0.084502,-0.622532,2.270475,-0.376710345,0.789513184,-0.734025432,-2.096863725,-1.021046005,0.332221282
3207108.875,0.486818,0.727044,0.233235,0.096006,-0.595036,2.303825,-0.39492982,0.774744692,-0.747444247,-2.133482208,-1.002347214,0.338302165
3207118.75,0.474596,0.720444,0.243008,0.115817,-0.567541,2.307464,-0.406497768,0.7642454,-0.767572933,-2.141213926,-0.975318415,0.351942306
3207128.625,0.433529,0.722644,0.257912,0.148411,-0.543711,2.318378,-0.423641828,0.751053923,-0.81799464,-2.155719347,-0.949324589,0.379711667
3207138.5,0.381951,0.739756,0.269395,0.192508,-0.511327,2.351122,-0.439933599,0.74744617,-0.883888749,-2.19380577,-0.916311895,0.416986863
3207148.375,0.304706,0.755402,0.289186,0.245552,-0.474666,2.392961,-0.462626176,0.729652381,-0.97371513,-2.241951122,-0.878589633,0.46217028
3207158.25,0.280261,0.769337,0.312397,0.320325,-0.439227,2.465725,-0.491106861,0.725704241,-1.013599226,-2.321083156,-0.841330184,0.529211435
3207168.125,0.274884,0.777649,0.334631,0.389985,-0.40501,2.505139,-0.514280059,0.726189453,-1.021023493,-2.371089117,-0.794029231,0.582491879
3207228,0.205461,0.828253,0.248383,0.629004,-0.314579,2.446322,-0.443187918,0.761134296,-1.119039583,-2.344261336,-0.617889334,0.775724736
3207238,0.204728,0.826297,0.25498,0.615583,-0.317023,2.440258,-0.454434937,0.752313191,-1.13118246,-2.333593896,-0.628927719,0.770126335
3207248,0.193972,0.826297,0.261333,0.577877,-0.312135,2.431769,-0.464868189,0.741070955,-1.152964743,-2.320693846,-0.642379991,0.739323053
3207258,0.199106,0.826786,0.268418,0.540171,-0.312746,2.402663,-0.476893782,0.736343122,-1.160117579,-2.286584652,-0.655824831,0.709794816
3207268,0.186394,0.833631,0.268418,0.497991,-0.320079,2.355973,-0.482007662,0.731252547,-1.186198594,-2.233460885,-0.672590974,0.678474934
3207278,0.156572,0.840232,0.270617,0.46412,-0.323745,2.305645,-0.487457419,0.717290455,-1.227195584,-2.178317028,-0.68149647,0.653233917
3207288,0.133839,0.848299,0.290408,0.432804,-0.328633,2.258954,-0.510379076,0.702200674,-1.261320283,-2.12659663,-0.691151415,0.630942645
3207298,0.112327,0.862967,0.298715,0.401489,-0.334132,2.201956,-0.520248304,0.702599365,-1.286802866,-2.067564316,-0.694703595,0.603334528
3207358,-0.082251,0.987889,0.298959,0.053187,-0.430673,1.707768,-0.535236954,0.713334687,-1.526062177,-1.535418153,-0.803175594,0.319655585
3207368,-0.107918,0.992045,0.291385,-0.002414,-0.450225,1.696247,-0.525644206,0.700506001,-1.560084196,-1.513371806,-0.843357091,0.280030097
3207378,-0.101074,0.970288,0.2821,-0.061849,-0.479554,1.685332,-0.510188125,0.682229244,-1.552744518,-1.489021005,-0.893567664,0.241856493
3207388,-0.068318,0.932151,0.28039,-0.139178,-0.499107,1.654407,-0.50013928,0.661874274,-1.51378452,-1.446066951,-0.938664931,0.182590675
3207398,-0.041918,0.885214,0.286743,-0.224816,-0.526602,1.588313,-0.494966215,0.630141655,-1.474881494,-1.36608154,-0.984936964,0.119626461
3207408,-0.038251,0.849277,0.298715,-0.282973,-0.537601,1.514337,-0.495059615,0.595698276,-1.460461458,-1.285859652,-1.001837583,0.072052178
3207418,-0.087629,0.871035,0.291385,-0.356468,-0.546766,1.450668,-0.483884747,0.587673428,-1.521326696,-1.21402323,-1.027855782,0.010964882
3207428,-0.15094,0.90966,0.288209,-0.417181,-0.551654,1.390032,-0.482387363,0.588185371,-1.595540954,-1.146905051,-1.045747521,-0.039648567
3207489,-0.169029,0.732911,0.277947,-0.608907,-0.47711,1.224494,-0.422351836,0.436078181,-1.523868895,-0.983521165,-1.034236332,-0.246634487
3207499,-0.142874,0.70382,0.258156,-0.62105,-0.442282,1.126869,-0.395792681,0.430212574,-1.490596971,-0.897850752,-0.983816564,-0.277703455
3207509,-0.177829,0.694041,0.257423,-0.611464,-0.40501,1.026212,-0.384301674,0.403609502,-1.518646562,-0.812378313,-0.919992336,-0.291011977
3207519,-0.242119,0.712376,0.259622,-0.597404,-0.361017,0.960725,-0.378037855,0.383352254,-1.586202343,-0.762465713,-0.858448627,-0.303198501
3207529,-0.291008,0.717999,0.256446,-0.565449,-0.326189,0.937683,-0.365882333,0.361593646,-1.63352421,-0.753554807,-0.806614201,-0.294804899
3207539,-0.311052,0.715799,0.263287,-0.517518,-0.285862,0.906758,-0.365969235,0.345628461,-1.651957886,-0.740272575,-0.739984244,-0.275992515
3207549,-0.325719,0.702109,0.257912,-0.468308,-0.247367,0.875833,-0.352957365,0.326328174,-1.659165788,-0.726524184,-0.674196626,-0.255358139
3207559,-0.334519,0.674729,0.250338,-0.420377,-0.222316,0.819441,-0.338522165,0.301512568,-1.65140173,-0.684237429,-0.613962586,-0.229115392
3207621,-0.411031,0.616301,0.216132,-0.245267,-0.065895,0.145162,-0.282555724,0.224410497,-1.682120692,-0.091675934,-0.220582933,-0.168845347
3207630.875,-0.447697,0.630725,0.228104,-0.200531,-0.035955,-0.002185,-0.293374736,0.215989292,-1.719415008,0.037604775,-0.134542398,-0.148305233
3207640.75,-0.499764,0.653705,0.248872,-0.127675,-0.003571,-0.119213,-0.313575004,0.205150163,-1.77370258,0.133384222,-0.039604192,-0.105667187
3207650.625,-0.531298,0.661283,0.25156,-0.03309,0.025757,-0.275049,-0.316928651,0.198428316,-1.801896276,0.264753086,0.073789808,-0.043257267
3207660.5,-0.557698,0.664217,0.261821,0.041683,0.045921,-0.437556,-0.328397723,0.189867713,-1.822719093,0.407551789,0.170739082,0.007153263
3207670.375,-0.577742,0.668861,0.261333,0.126682,0.063641,-0.597636,-0.331643938,0.190293435,-1.838603899,0.547627999,0.269861476,0.06742146
3207680.25,-0.56992,0.67424,0.256202,0.182282,0.074028,-0.771057,-0.334829021,0.207927881,-1.830483818,0.706227672,0.351052676,0.106020107
3207690.125,-0.551342,0.687196,0.241542,0.241717,0.085637,-0.917798,-0.325846351,0.231692403,-1.821402256,0.83826704,0.428141791,0.148717681
3207751,-0.507831,0.782538,0.22224,0.374647,0.215784,-1.670298,-0.343851074,0.351847751,-1.823175718,1.520060165,0.795664826,0.182079917
3207761,-0.505631,0.792072,0.212956,0.379121,0.229226,-1.704254,-0.347010609,0.3780479,-1.815508702,1.549794145,0.81709513,0.17678418
3207771,-0.499031,0.799895,0.213445,0.3657,0.241447,-1.715169,-0.359773178,0.402402011,-1.801909347,1.559261017,0.823366456,0.156877661
3207781,-0.475809,0.807474,0.221507,0.361227,0.254889,-1.724871,-0.381077484,0.431582662,-1.772003998,1.566194298,0.834740095,0.144491204
3207791,-0.45112,0.808207,0.227127,0.351001,0.259777,-1.72002,-0.397905697,0.45532692,-1.736643018,1.56163209,0.832587896,0.131366671
3207801,-0.426675,0.80454,0.223462,0.342054,0.268942,-1.716988,-0.403995818,0.476691158,-1.699159747,1.557484235,0.83533677,0.117617471
3207811,-0.392697,0.800873,0.226394,0.326077,0.273831,-1.707893,-0.416254088,0.498971523,-1.651630795,1.548980054,0.830047633,0.099447703
3207821,-0.357253,0.806007,0.224684,0.307543,0.29155,-1.705467,-0.417830126,0.517366164,-1.620894619,1.542755858,0.838071466,0.075778417
3207881,-0.106207,0.751002,0.260844,0.314573,0.409477,-1.662415,-0.455717186,0.560995288,-1.347749416,1.469084505,0.933029266,0.038708195
3207891,-0.075896,0.757602,0.261088,0.31649,0.433306,-1.692127,-0.463682777,0.584514349,-1.30204171,1.491227135,0.96260968,0.028948712
3207901,-0.032384,0.77496,0.254003,0.310739,0.463857,-1.757008,-0.466789978,0.62271914,-1.245880537,1.545091904,1.005698609,0.007776176
3207911,-0.016495,0.78156,0.248139,0.306265,0.488909,-1.827347,-0.466628193,0.640674033,-1.210893327,1.605323366,1.04634624,-0.011124561
3207921,-0.013073,0.79085,0.254003,0.30307,0.517627,-1.866154,-0.478009387,0.653389856,-1.186335375,1.633921054,1.082529292,-0.027426393
3207931,-0.000118,0.787672,0.274038,0.304987,0.551844,-1.890409,-0.49842743,0.652332836,-1.146819571,1.646696349,1.121650225,-0.038561173
3207941,0.039238,0.77007,0.284299,0.31649,0.59156,-1.904355,-0.502753736,0.64528882,-1.078831258,1.648213576,1.165568831,-0.038967028
3207951,0.075905,0.782782,0.281123,0.326716,0.622111,-1.926184,-0.501528627,0.66624977,-1.046039666,1.660236602,1.202558014,-0.037668158
3208011,0.274395,0.796228,0.28772,0.205928,0.802361,-2.243314,-0.495492689,0.718056984,-0.824114794,1.898742312,1.435700807,-0.228447026
3208021,0.283439,0.805518,0.292362,0.191229,0.824968,-2.237856,-0.495800664,0.722986639,-0.785187346,1.884347454,1.454117139,-0.244781997
3208031,0.300306,0.812607,0.297737,0.161831,0.844521,-2.229367,-0.493908066,0.725380642,-0.73724746,1.865989654,1.467364191,-0.272776753
3208041,0.329639,0.826297,0.295783,0.139463,0.854297,-2.249984,-0.483563283,0.735730108,-0.677844843,1.878385241,1.481737011,-0.296353859
3208051,0.345773,0.829964,0.292118,0.104314,0.870184,-2.283334,-0.468370958,0.73343864,-0.630637655,1.898434961,1.505249302,-0.33449215
3208061,0.354817,0.828742,0.286987,0.059578,0.879349,-2.298493,-0.449857572,0.724714259,-0.590747814,1.900784176,1.517893701,-0.378011244
3208071,0.373395,0.815785,0.287476,0.011007,0.884848,-2.315471,-0.429776826,0.701887474,-0.541505401,1.903594872,1.529583624,-0.42565666
3208081,0.408595,0.791094,0.29334,-0.027338,0.898291,-2.310621,-0.420689803,0.677293994,-0.506927103,1.887153473,1.540203376,-0.461593787
3208141,0.568707,0.733889,0.275504,-0.186471,0.910511,-2.222091,-0.335571957,0.613450199,-0.329930239,1.764128684,1.529539757,-0.591479709
3208151,0.592418,0.718488,0.267441,-0.202448,0.91601,-2.236038,-0.298870192,0.581477942,-0.284969377,1.767939791,1.546468866,-0.602285973
3208161,0.597063,0.696975,0.266464,-0.215869,0.926397,-2.226336,-0.271086173,0.540645718,-0.260083833,1.7487654,1.561651077,-0.603695537
3208171,0.632508,0.668617,0.273793,-0.226733,0.922731,-2.212996,-0.240085292,0.486514353,-0.207699232,1.730537222,1.562881724,-0.602356444
3208181,0.664285,0.653705,0.277214,-0.230568,0.914788,-2.202081,-0.20913463,0.443681392,-0.160439449,1.717713763,1.560650414,-0.594128883
3208191,0.657685,0.66055,0.265975,-0.228651,0.906234,-2.193592,-0.18181618,0.42937178,-0.150175716,1.709375396,1.557731148,-0.580427974
3208201,0.663063,0.647348,0.2606,-0.238876,0.896458,-2.180858,-0.151790973,0.39135251,-0.133728075,1.694114862,1.554605318,-0.574471449
3208211,0.719286,0.634392,0.249361,-0.254853,0.886681,-2.186315,-0.118942517,0.371696329,-0.089120763,1.695701355,1.550338403,-0.593442733
3208272,0.800442,0.556163,0.21882,-0.299589,0.716207,-2.263324,-0.029070518,0.260801795,-0.036130611,1.788669083,1.43479792,-0.683636897
3208281.875,0.835153,0.549073,0.200984,-0.299589,0.68749,-2.251803,0.015755673,0.219188993,-0.004477923,1.785505402,1.41450309,-0.666456517
3208291.75,0.837353,0.549562,0.193654,-0.311732,0.650217,-2.248771,0.035506837,0.1890521,0.001837751,1.788077591,1.392112799,-0.664628076
3208301.625,0.84542,0.528538,0.190478,-0.315566,0.623333,-2.251803,0.053329967,0.139226655,0.004062307,1.799506514,1.377073533,-0.651296759
3208311.5,0.890153,0.505069,0.179972,-0.316205,0.583006,-2.244527,0.088351182,0.081422421,0.032192539,1.807149894,1.342826812,-0.639381317
3208321.375,0.932687,0.484045,0.176307,-0.324514,0.5494,-2.247558,0.113359525,0.026606623,0.059117777,1.820735805,1.318349119,-0.636822886
3208331.25,0.94882,0.470355,0.172153,-0.324514,0.498074,-2.239676,0.125988624,-0.010831276,0.06542922,1.830538539,1.271228448,-0.63454119
3208341.125,0.920953,0.460332,0.179239,-0.311732,0.451637,-2.223304,0.110611341,-0.011104366,0.039147931,1.828261073,1.220854445,-0.641256088
3208402,0.945642,0.389681,0.150164,-0.349438,0.205397,-2.088084,0.155089262,-0.083067114,0.018668973,1.741019885,0.972933624,-0.739350768
3208411.875,0.910442,0.363768,0.163602,-0.339852,0.180345,-2.02866,0.131356177,-0.102397921,-0.020072641,1.702181851,0.921143537,-0.719414087
3208421.75,0.92242,0.312186,0.167267,-0.31301,0.152238,-1.984396,0.137598275,-0.158409898,-0.034458689,1.683209317,0.864560126,-0.691607792
3208431.625,0.993309,0.284561,0.157982,-0.288725,0.126575,-1.93528,0.17288695,-0.213825666,0.008456609,1.657601944,0.809765077,-0.664325484
3208441.5,1.048798,0.261581,0.152363,-0.265718,0.102746,-1.919514,0.197829743,-0.260552202,0.041437608,1.6611993,0.767119424,-0.646251861
3208451.375,1.072754,0.24398,0.150164,-0.25038,0.082582,-1.931035,0.206524088,-0.291500201,0.051309681,1.686488947,0.739274649,-0.638462315
3208461.25,1.077154,0.233223,0.12793,-0.229929,0.068529,-1.951045,0.225014057,-0.303459891,0.04321645,1.720638386,0.717181113,-0.623854916
3208471.125,1.104043,0.212199,0.089082,-0.217786,0.055697,-1.969236,0.273248238,-0.321934133,0.045738389,1.743470926,0.706170868,-0.624543959
3208531,1.134843,0.064053,0.157738,-0.012639,0.041644,-1.85342,0.236262908,-0.486179882,0.012255728,1.71266492,0.56612484,-0.428183606
3208541,1.194977,0.04254,0.143078,-0.001136,0.028202,-1.905568,0.269036489,-0.531955942,0.046371463,1.770213229,0.558274287,-0.43204281
3208551,1.177621,0.043518,0.132328,0.008451,0.017814,-1.934067,0.268792543,-0.525726506,0.028376364,1.804557198,0.547100319,-0.430416633
3208561,1.143643,0.039362,0.134771,0.026345,0.00315,-1.950439,0.251385585,-0.519464723,-0.002706869,1.830787634,0.525072486,-0.421226541
3208571,1.105021,0.040584,0.133305,0.03721,-0.012737,-1.914663,0.23585154,-0.504651696,-0.035536724,1.805705418,0.491032074,-0.407181364
3208581,1.061754,0.047674,0.135993,0.044879,-0.012126,-1.876462,0.214939461,-0.483033208,-0.068029823,1.774788037,0.472146135,-0.387912688
3208591,1.009931,0.051096,0.146988,0.058299,-0.013348,-1.841293,0.1844421,-0.462127716,-0.10747774,1.748416251,0.450507706,-0.366087794
3208601,1.000887,0.037651,0.147232,0.07875,0.000706,-1.810368,0.182844561,-0.469395437,-0.121873906,1.724401739,0.444750374,-0.335067313
3208661,1.062487,-0.095339,0.124754,0.063412,0.029424,-1.854027,0.236872127,-0.607472289,-0.146536044,1.758903964,0.482686154,-0.339961602
3208671,1.057354,-0.118808,0.127686,0.05766,0.038589,-1.829772,0.232657061,-0.628424477,-0.163716612,1.734975031,0.481797111,-0.332584642
3208681,1.038287,-0.127364,0.128175,0.051269,0.048365,-1.804305,0.224839464,-0.62915311,-0.184951601,1.709482989,0.481728176,-0.325714738
3208691,1.039265,-0.139587,0.129152,0.046796,0.070362,-1.767316,0.22349742,-0.642208818,-0.191388074,1.672362751,0.488334065,-0.308673272
3208701,1.043176,-0.151566,0.128175,0.040405,0.085026,-1.739424,0.224971719,-0.655725299,-0.19561868,1.643949053,0.492250371,-0.299297377
3208711,1.061998,-0.172346,0.125243,0.034653,0.102135,-1.715169,0.233888265,-0.68314006,-0.192631037,1.618918449,0.498974359,-0.289075649
3208721,1.07691,-0.205837,0.120845,0.026984,0.110078,-1.695765,0.244247683,-0.718926272,-0.199877748,1.59875996,0.500247774,-0.286675762
3208731,1.085465,-0.232729,0.116447,0.015481,0.128408,-1.677574,0.253764298,-0.744580023,-0.208064884,1.576147377,0.516682202,-0.282456636
3208792,1.009687,-0.30289,0.104475,-0.07527,0.15346,-1.456857,0.246131691,-0.763976069,-0.308707752,1.338277169,0.521989189,-0.296966949
3208802,1.000887,-0.250575,0.096412,-0.092525,0.156515,-1.413805,0.244215997,-0.712923445,-0.288693737,1.293281506,0.517795934,-0.302014429
3208812,0.976198,-0.33027,0.099344,-0.10339,0.158348,-1.366508,0.239405942,-0.768348359,-0.348666266,1.246315446,0.508752328,-0.301623229
3208822,0.971798,-0.346405,0.099833,-0.104668,0.161403,-1.337403,0.237035779,-0.779206982,-0.358903343,1.219462197,0.500642157,-0.296517255
3208832,0.99502,-0.375741,0.093969,-0.111059,0.158348,-1.330127,0.250180271,-0.813000341,-0.354619066,1.212257066,0.494870074,-0.303615615
3208842,1.022154,-0.402632,0.09348,-0.121923,0.156515,-1.333158,0.258913955,-0.848024452,-0.344661973,1.213379159,0.494531252,-0.31594663
3208852,1.048798,-0.430013,0.088594,-0.129592,0.156515,-1.353775,0.27137596,-0.882488132,-0.336443591,1.232081752,0.498007983,-0.328573259
3208862,1.069821,-0.455193,0.088349,-0.137261,0.151016,-1.380455,0.280046477,-0.913834097,-0.332164393,1.255477424,0.502929799,-0.34371569
3208923,0.920464,-0.427568,0.097878,-0.09636,0.091747,-1.18096,0.220405326,-0.820176447,-0.435747786,1.084732095,0.384072111,-0.297008719
3208933,0.913375,-0.44028,0.080775,-0.091247,0.078916,-1.135483,0.232799193,-0.822223007,-0.448294614,1.045294984,0.356456759,-0.290124747
3208943,0.930242,-0.45177,0.087128,-0.08933,0.069751,-1.097282,0.229903154,-0.839374781,-0.434639834,1.011449427,0.335238245,-0.285408856
3208953,0.945398,-0.463749,0.082241,-0.092525,0.064252,-1.063325,0.237064247,-0.853594446,-0.424864224,0.979766622,0.320695736,-0.283832456
3208963,0.959331,-0.47695,0.08273,-0.082939,0.054475,-1.045741,0.23884997,-0.869352748,-0.415347954,0.967646063,0.300244345,-0.277371723
3208973,0.978398,-0.498952,0.087128,-0.074631,0.058752,-1.040283,0.238984491,-0.895813883,-0.404843774,0.965625019,0.295215244,-0.267631437
3208983,0.991598,-0.520465,0.092503,-0.064405,0.055086,-1.037858,0.236414884,-0.919385359,-0.398713231,0.967496646,0.283243468,-0.26087368
3208993,1.001131,-0.537578,0.095923,-0.05418,0.061196,-1.049379,0.23706794,-0.939255574,-0.398292126,0.981081144,0.286220473,-0.251861743
3209054,0.99722,-0.545156,0.077599,0.030819,0.061807,-1.038464,0.251283942,-0.938101964,-0.404613165,0.996251724,0.243589722,-0.176985717
3209064,0.996487,-0.542467,0.071491,0.035931,0.054475,-1.019061,0.254136121,-0.931742836,-0.400301851,0.980373101,0.228633349,-0.171287067
3209074,0.995998,-0.5432,0.072957,0.039766,0.050198,-0.997232,0.250030161,-0.929693307,-0.395387518,0.961558783,0.21660704,-0.164495999
3209084,0.994776,-0.546134,0.071491,0.046157,0.041644,-0.95903,0.248696604,-0.92841237,-0.392420318,0.928008814,0.196725774,-0.153954031
3209094,0.997709,-0.545645,0.080775,0.0436,0.034312,-0.917798,0.23794841,-0.927561036,-0.381382675,0.888885977,0.181431396,-0.149652297
3209104,1.001376,-0.539289,0.076377,0.040405,0.029424,-0.868076,0.240144887,-0.918917883,-0.369650634,0.841235348,0.167224242,-0.142875537
3209114,1.006265,-0.546134,0.078576,0.044879,0.023313,-0.824417,0.237094351,-0.923228225,-0.360905564,0.801548846,0.149972816,-0.131333974
3209124,1.022154,-0.547356,0.077843,0.040405,0.016592,-0.769238,0.24226454,-0.930870448,-0.347891861,0.747819364,0.135965241,-0.126153127
3211960,0.671374,-0.793289,0.122066,-0.070157,-0.015792,0.385283,0.11803561,-1.005458468,-0.735289863,-0.387904406,-0.053517753,0.016745277
3211970,0.66673,-0.794267,0.122555,-0.067601,-0.023735,0.387102,0.115827561,-0.999883062,-0.72210339,-0.38846999,-0.061746459,0.016113517
3211980,0.661352,-0.789866,0.120845,-0.077826,-0.029234,0.394379,0.11512696,-0.988604388,-0.707963311,-0.397897804,-0.063868439,0.006668469
3211990,0.659885,-0.791089,0.121333,-0.082939,-0.02679,0.387709,0.113776386,-0.984057089,-0.692301617,-0.393036384,-0.05860008,0.001811525
3212000,0.655485,-0.789622,0.120112,-0.074631,-0.02679,0.385283,0.113058304,-0.975485645,-0.678696474,-0.388486384,-0.061070252,0.008901368
3212010,0.649374,-0.796467,0.118646,-0.073992,-0.029234,0.382858,0.112681449,-0.973864276,-0.669826695,-0.385830722,-0.063056265,0.008261499
3212020,0.64473,-0.798423,0.116935,-0.071435,-0.029845,0.381039,0.112649282,-0.96807704,-0.65799585,-0.383374886,-0.064054377,0.010253607
3212030,0.641063,-0.799889,0.123044,-0.066962,-0.028623,0.374369,0.105908291,-0.969240351,-0.660470053,-0.375865069,-0.063285986,0.013253963
3212092,0.72833,-0.812357,0.129885,-0.008805,0.019647,0.248244,0.123118268,-1.002290138,-0.566970014,-0.242641557,-0.016179182,0.054331623
3212101.875,0.721975,-0.796467,0.133794,-0.003053,0.036145,0.260372,0.116754786,-0.978617893,-0.550351518,-0.254083462,-0.003281633,0.067380896
3212111.75,0.720997,-0.787666,0.128663,0.012285,0.058752,0.273712,0.121334812,-0.961341702,-0.533193225,-0.264718269,0.013051604,0.09096632
3212121.625,0.731752,-0.775932,0.133061,0.03657,0.080138,0.308275,0.119921341,-0.94491305,-0.502009149,-0.293492655,0.02368694,0.126861855
3212131.5,0.729797,-0.770065,0.135504,0.057021,0.107023,0.36406,0.117890341,-0.929711501,-0.484535654,-0.344233869,0.038698908,0.165077068
3212141.375,0.742508,-0.766642,0.145522,0.071081,0.133297,0.429548,0.112804158,-0.920384812,-0.451910811,-0.406051288,0.05435773,0.198745243
3212151.25,0.757175,-0.768842,0.152852,0.083224,0.154071,0.487153,0.111567479,-0.915225823,-0.418871679,-0.46046784,0.067107133,0.226821855
3212161.125,0.779419,-0.76982,0.155783,0.103035,0.177901,0.549608,0.114545769,-0.920911791,-0.397350937,-0.517491323,0.077888719,0.265461879
3212221,0.848842,-0.711393,0.146743,0.09281,0.276886,0.969214,0.138867296,-0.858563091,-0.298764275,-0.93321254,0.124716032,0.371773583
3212231,0.860331,-0.692813,0.152119,0.076833,0.293994,1.055318,0.137436462,-0.823506876,-0.260914676,-1.022645282,0.13851321,0.375556361
3212241,0.879642,-0.68059,0.150653,0.061495,0.30927,1.140209,0.145054927,-0.792582398,-0.218692549,-1.110694297,0.150406069,0.378473678
3212251,0.900664,-0.674234,0.157249,0.05766,0.325156,1.231164,0.145610492,-0.766060157,-0.17388633,-1.201842669,0.161042408,0.393008189
3212261,0.918998,-0.663722,0.156028,0.041683,0.341654,1.319087,0.152098767,-0.731592691,-0.133358751,-1.293419498,0.174075892,0.39397846
3212271,0.934153,-0.65541,0.152363,0.019954,0.350819,1.403372,0.159787065,-0.696338948,-0.097227192,-1.382361136,0.180378643,0.386608765
3212281,0.952487,-0.652476,0.148454,-0.000497,0.35754,1.489476,0.168493843,-0.664255798,-0.059059478,-1.472579193,0.183459098,0.379772477
3212291,0.963976,-0.653943,0.1443,-0.014556,0.358151,1.550113,0.175527045,-0.665222314,-0.049009361,-1.534480383,0.177061688,0.381252465
